{"resourceType":"Bundle","id":"MCED-CancerMarkersNotDetected-Example","meta":{"lastUpdated":"2020-09-20T10:22:00+00:00","profile":["https://fhir.hl7.org.uk/StructureDefinition/UKCore-Bundle"]},"identifier":{"system":"https://tools.ietf.org/html/rfc4122","value":"b84acc4c-81cb-4c6c-a08d-8631edc61f7f"},"type":"message","entry":[{"fullUrl":"urn:uuid:2fdd9240-62ea-4180-95cb-0bb8351f8a60","resource":{"resourceType":"MessageHeader","id":"2fdd9240-62ea-4180-95cb-0bb8351f8a60","eventCoding":{"system":"http://snomed.info/sct","code":"371528001","display":"Pathology report"},"destination":[{"name":"Executive Agency - NHS ENGLAND - X26","endpoint":"mesh-mailbox-nhs","receiver":{"reference":"urn:uuid:c0ddd1c4-306e-4829-9d87-ea040d92cb27"}}],"sender":{"reference":"urn:uuid:1667dd0a-8aab-4999-80b7-dd6b930860f9"},"source":{"endpoint":"mesh-mailbox-ScreeningOrg"},"focus":[{"reference":"urn:uuid:1ba48cf0-77a4-48b5-b4dd-bf0d1f2f973d"}],"definition":"https://fhir.nhs.uk/England/MessageDefinition/England-MCED-TestReport"}},{"fullUrl":"urn:uuid:1667dd0a-8aab-4999-80b7-dd6b930860f9","resource":{"resourceType":"Organization","id":"1667dd0a-8aab-4999-80b7-dd6b930860f9","identifier":[{"system":"https://fhir.nhs.uk/Id/ods-organization-code","value":"ABC123"}],"name":"Screening Organisation Ltd","address":[{"text":"Screening Organisation Ltd, Floor 1, High Rise, Anytown, AT5 5TT"}]}},{"fullUrl":"urn:uuid:9dccdf9d-d297-448f-b4f4-8f7721089588","resource":{"resourceType":"Organization","id":"9dccdf9d-d297-448f-b4f4-8f7721089588","identifier":[{"system":"http://terminology.hl7.org/NamingSystem/CLIA","value":"ScreeningLab34D2231294CLIA"},{"system":"http://terminology.hl7.org/NamingSystem/CAP","value":"ScreeningLab6793CAP"}],"name":"Screening Lab Name","telecom":[{"system":"phone","value":"+18336942553"},{"system":"fax","value":"+16509999000"},{"system":"email","value":"customerservice@screeninglab.com"}],"address":[{"text":"Screening Lab Name, The Lab, Anytown, AT66 7TY"}],"contact":[{"name":{"text":"Ms Lab DIRECTOR"}}]}},{"fullUrl":"urn:uuid:c0ddd1c4-306e-4829-9d87-ea040d92cb27","resource":{"resourceType":"Organization","id":"c0ddd1c4-306e-4829-9d87-ea040d92cb27","identifier":[{"system":"https://fhir.nhs.uk/Id/ods-organization-code","value":"X26"}],"name":"Executive Agency - NHS ENGLAND - X26","address":[{"line":["THE LEEDS GOVERNMENT HUB","7-8 WELLINGTON PLACE"],"city":"LEEDS","district":"WEST YORKSHIRE","postalCode":"LS1 4AP"}]}},{"fullUrl":"urn:uuid:f389ca3a-e1a4-46f9-ad3a-3cfcc5fbacb7","resource":{"resourceType":"Practitioner","id":"f389ca3a-e1a4-46f9-ad3a-3cfcc5fbacb7","identifier":[{"system":"https://fhir.nhs.uk/Id/sds-user-id","value":"3415870223"}],"name":[{"text":"Dr. Daniel Davies"}],"address":[{"text":"NHS England, Wellington House, 133-155 Waterloo Road, London, SE1 8UG, UK"}]}},{"fullUrl":"urn:uuid:17473ce3-f258-4112-b0b6-ac4982f07f99","resource":{"resourceType":"Patient","id":"17473ce3-f258-4112-b0b6-ac4982f07f99","identifier":[{"system":"https://ScreeningOrg/patient-id","value":"NHS-AB12-CD34"}]}},{"fullUrl":"urn:uuid:18b04eb1-01b6-4484-8dd8-da3bb636b1a5","resource":{"resourceType":"ServiceRequest","id":"18b04eb1-01b6-4484-8dd8-da3bb636b1a5","identifier":[{"system":"http://ScreeningOrg/request-id","value":"NHS9123123"}],"status":"active","intent":"order","code":{"coding":[{"system":"http://snomed.info/sct","code":"1148754001","display":"Screening for neoplasm"}]},"subject":{"reference":"urn:uuid:17473ce3-f258-4112-b0b6-ac4982f07f99","display":"NHS-AB12-CD34"},"requester":{"reference":"urn:uuid:f389ca3a-e1a4-46f9-ad3a-3cfcc5fbacb7","display":"Dr. Daniel Davies"},"performer":[{"reference":"urn:uuid:9dccdf9d-d297-448f-b4f4-8f7721089588","display":"Screening Lab"}]}},{"fullUrl":"urn:uuid:1ba48cf0-77a4-48b5-b4dd-bf0d1f2f973d","resource":{"resourceType":"DiagnosticReport","id":"1ba48cf0-77a4-48b5-b4dd-bf0d1f2f973d","extension":[{"url":"http://hl7.org/fhir/5.0/StructureDefinition/extension-DiagnosticReport.note","valueAnnotation":{"text":"Some Lab Comments"}}],"basedOn":[{"reference":"urn:uuid:18b04eb1-01b6-4484-8dd8-da3bb636b1a5"}],"status":"final","code":{"coding":[{"system":"http://snomed.info/sct","code":"721981007","display":"Diagnostic studies report"}]},"subject":{"reference":"urn:uuid:17473ce3-f258-4112-b0b6-ac4982f07f99","display":"NHS-AB12-CD34"},"issued":"2020-09-25T16:00:00+00:00","performer":[{"reference":"urn:uuid:9dccdf9d-d297-448f-b4f4-8f7721089588","display":"Screening Lab"}],"specimen":[{"reference":"urn:uuid:f6dc2f5c-b1c9-41c3-b837-1e860abc3c08","display":"NHS9123123"}],"result":[{"reference":"urn:uuid:bcf61153-9f23-4b56-bfab-2650ee01878e"}],"conclusion":"The test results report PDF document is the official source of the test result and contains important information regarding the test and the patient's test results. Please read the official report for complete results.","presentedForm":[{"contentType":"application/pdf","data":"VGhlIEdSQUlMIFBERiBnb2VzIGhlcmU="}]}},{"fullUrl":"urn:uuid:bcf61153-9f23-4b56-bfab-2650ee01878e","resource":{"resourceType":"Observation","id":"bcf61153-9f23-4b56-bfab-2650ee01878e","identifier":[{"system":"http://ScreeningOrg/request-id","value":"NHS9123123"}],"status":"final","code":{"coding":[{"system":"http://snomed.info/sct","code":"1148754001","display":"Screening for neoplasm"}]},"subject":{"reference":"urn:uuid:17473ce3-f258-4112-b0b6-ac4982f07f99","display":"NHS-AB12-CD34"},"issued":"2020-09-25T16:00:00+00:00","performer":[{"reference":"urn:uuid:9dccdf9d-d297-448f-b4f4-8f7721089588","display":"Screening Lab"}],"specimen":{"reference":"urn:uuid:f6dc2f5c-b1c9-41c3-b837-1e860abc3c08","display":"NHS9123123"},"hasMember":[{"reference":"urn:uuid:4a26bdd2-bb57-4f69-8f03-00ac6f1f8351"}]}},{"fullUrl":"urn:uuid:4a26bdd2-bb57-4f69-8f03-00ac6f1f8351","resource":{"resourceType":"Observation","id":"4a26bdd2-bb57-4f69-8f03-00ac6f1f8351","identifier":[{"system":"http://ScreeningOrg/request-id","value":"NHS9123123"}],"basedOn":[{"reference":"urn:uuid:18b04eb1-01b6-4484-8dd8-da3bb636b1a5"}],"status":"final","code":{"coding":[{"system":"http://snomed.info/sct","code":"1854971000000106","display":"Qualitative result of cancer methylation profile in cell free deoxyribonucleic acid by next generation sequencing"}]},"subject":{"reference":"urn:uuid:17473ce3-f258-4112-b0b6-ac4982f07f99","display":"NHS-AB12-CD34"},"issued":"2020-09-25T16:00:00+00:00","performer":[{"reference":"urn:uuid:9dccdf9d-d297-448f-b4f4-8f7721089588","display":"Screening Lab"}],"valueCodeableConcept":{"coding":[{"system":"http://snomed.info/sct","code":"1854991000000105","display":"Multi-cancer early detection signal not detected"}]},"specimen":{"reference":"urn:uuid:f6dc2f5c-b1c9-41c3-b837-1e860abc3c08","display":"NHS9123123"}}},{"fullUrl":"urn:uuid:f6dc2f5c-b1c9-41c3-b837-1e860abc3c08","resource":{"resourceType":"Specimen","id":"f6dc2f5c-b1c9-41c3-b837-1e860abc3c08","identifier":[{"system":"http://ScreeningOrg/request-id","value":"NHS9123123"}],"status":"available","type":{"coding":[{"system":"http://snomed.info/sct","code":"119297000","display":"Blood specimen"}]},"subject":{"reference":"urn:uuid:17473ce3-f258-4112-b0b6-ac4982f07f99","display":"NHS-AB12-CD34"},"collection":{"collectedDateTime":"2020-09-23T11:00:00+00:00"}}}]}