{"resourceType":"Bundle","id":"dcd2aaa9-efe2-4df2-bb34-ad4ee9a41f28","meta":{"versionId":"1.0.0","lastUpdated":"2023-12-26T15:30:00.8185338+00:00","profile":["https://fhir.nhs.uk/StructureDefinition/BARSBundleMessage"]},"type":"message","timestamp":"2023-12-26T15:30:00+00:00","entry":[{"fullUrl":"urn:uuid:1cbdfb97-5859-48a4-8301-d54eab818d68","resource":{"resourceType":"MessageHeader","meta":{"lastUpdated":"2023-12-26T15:30:00.8185338+00:00","profile":["https://fhir.nhs.uk/StructureDefinition/BARSMessageHeader-servicerequest-response"]},"extension":[{"url":"https://fhir.nhs.uk/StructureDefinition/CDSSExtension","extension":[{"url":"RequesterCDSSsoftware","valueString":"Pathways"},{"url":"RequesterCDSSversion","valueString":"30.2.0"}]}],"eventCoding":{"system":"https://fhir.nhs.uk/CodeSystem/message-events-bars","code":"servicerequest-response"},"destination":[{"endpoint":"https://fhir.nhs.uk/Id/dos-service-id|2222222222","receiver":{"reference":"urn:uuid:10397afd-479c-42ea-9d5d-e4024481e0f8"}}],"sender":{"reference":"urn:uuid:07939a0c-2854-46ff-9282-ad906bc93679"},"source":{"name":"Emergency service","software":"Patient Manager","version":"1.7","contact":{"system":"phone","value":"+44 (0113) 123 4567"},"endpoint":"https://fhir.nhs.uk/Id/dos-service-id|11111111111"},"reason":{"coding":[{"system":"https://fhir.nhs.uk/CodeSystem/message-reason-bars","code":"new"}]},"response":{"identifier":"86e3371d-1c15-4862-9552-d9560f8292ba","code":"ok"},"focus":[{"reference":"urn:uuid:236bb75d-90ef-461f-b71e-fde7f899802c"}],"definition":"https://fhir.nhs.uk/MessageDefinition/bars-message-servicerequest-request-response-short"}},{"fullUrl":"urn:uuid:236bb75d-90ef-461f-b71e-fde7f899802c","resource":{"resourceType":"ServiceRequest","meta":{"lastUpdated":"2023-12-26T15:00:00.8185338+00:00","profile":["https://fhir.nhs.uk/StructureDefinition/BARSServiceRequest-request-referral"]},"status":"active","intent":"plan","category":[{"coding":[{"system":"https://fhir.nhs.uk/CodeSystem/message-category-servicerequest","code":"referral","display":"Transfer of Care"},{"system":"https://fhir.nhs.uk/CodeSystem/usecases-categories-bars","code":"999to999outofareareferral","display":"999-999 Out of Area Referral"}]}],"subject":{"reference":"urn:uuid:9589fb37-87a2-48d8-968f-b371429208a8"},"authoredOn":"2023-12-26T11:30:00+00:00","performer":[{"reference":"urn:uuid:10397afd-479c-42ea-9d5d-e4024481e0f8"}]}},{"fullUrl":"urn:uuid:6f6dc04b-c1e8-408c-9c34-60a3ac990ee4","resource":{"resourceType":"Encounter","meta":{"lastUpdated":"2023-12-26T15:00:00.8185338+00:00","profile":["https://fhir.hl7.org.uk/StructureDefinition/UKCore-Encounter"]},"identifier":[{"system":"https://sender.url/Id/case-number","value":"sender1234"}],"status":"triaged","statusHistory":[{"status":"planned","period":{"start":"2023-12-26T15:00:01+00:00"}},{"status":"arrived","period":{"start":"2023-12-26T15:00:02+00:00"}},{"status":"in-progress","period":{"start":"2023-12-26T15:00:03+00:00"}}],"class":{"system":"http://terminology.hl7.org/CodeSystem/v3-ActCode","code":"EMER","display":"emergency"},"subject":{"reference":"urn:uuid:9589fb37-87a2-48d8-968f-b371429208a8"},"episodeOfCare":[{"reference":"EpisodeOfCare/d877b820-e72b-44d1-a627-195f54bfc606"}],"period":{"start":"2023-12-26T15:00:00+00:00"}}},{"fullUrl":"urn:uuid:eba5ef44-5fdc-4d4f-b025-24db80e9b906","resource":{"resourceType":"Encounter","meta":{"lastUpdated":"2023-12-26T15:30:00.8185338+00:00","profile":["https://fhir.hl7.org.uk/StructureDefinition/UKCore-Encounter"]},"identifier":[{"system":"https://sender.url/Id/case-number","value":"reciever1234"}],"status":"planned","class":{"system":"http://terminology.hl7.org/CodeSystem/v3-ActCode","code":"EMER","display":"emergency"},"subject":{"reference":"urn:uuid:9589fb37-87a2-48d8-968f-b371429208a8"},"episodeOfCare":[{"reference":"EpisodeOfCare/d877b820-e72b-44d1-a627-195f54bfc606"}],"period":{"start":"2023-12-26T15:30:00+00:00"}}},{"fullUrl":"urn:uuid:9589fb37-87a2-48d8-968f-b371429208a8","resource":{"resourceType":"Patient","meta":{"lastUpdated":"2023-12-26T15:00:00.8185338+00:00","profile":["https://fhir.hl7.org.uk/StructureDefinition/UKCore-Patient"]},"extension":[{"url":"https://fhir.hl7.org.uk/StructureDefinition/Extension-UKCore-EthnicCategory","valueCodeableConcept":{"coding":[{"system":"https://fhir.hl7.org.uk/CodeSystem/UKCore-EthnicCategory","code":"A","display":"British, Mixed British"}]}},{"url":"http://hl7.org/fhir/StructureDefinition/patient-religion","valueCodeableConcept":{"coding":[{"system":"http://terminology.hl7.org/CodeSystem/v3-ReligiousAffiliation","code":"1041","display":"Roman Catholic Church"}]}}],"identifier":[{"extension":[{"url":"https://fhir.hl7.org.uk/StructureDefinition/Extension-UKCore-NHSNumberVerificationStatus","valueCodeableConcept":{"coding":[{"system":"https://fhir.hl7.org.uk/CodeSystem/UKCore-NHSNumberVerificationStatus","code":"number-present-and-verified","display":"Number present and verified"}]}}],"system":"https://fhir.nhs.uk/Id/nhs-number","value":"3478526985"}],"name":[{"use":"official","text":"Mrs Julie Jones","family":"Jones","given":["Julie"],"prefix":["Mrs"]}],"gender":"female","birthDate":"1959-05-04","address":[{"use":"home","type":"both","text":"22 Brightside Crescent, Overtown, West Yorkshire, LS10 4YU","line":["22 Brightside Crescent","Overtown","Leeds","West Yorkshire"],"city":"Overtown","district":"West Yorkshire","postalCode":"LS10 4YU"}],"contact":[{"extension":[{"url":"https://fhir.hl7.org.uk/StructureDefinition/Extension-UKCore-ContactRank","valuePositiveInt":1}],"relationship":[{"coding":[{"system":"http://terminology.hl7.org/CodeSystem/v3-RoleCode","code":"ONESELF","display":"self"}]}],"telecom":[{"system":"phone","value":"01138698975","use":"home","rank":2},{"system":"phone","value":"07736312544","use":"mobile","rank":1},{"system":"email","value":"jjones@hotmail.co.uk","use":"home","rank":3}]},{"extension":[{"url":"https://fhir.hl7.org.uk/StructureDefinition/Extension-UKCore-ContactRank","valuePositiveInt":2}],"relationship":[{"coding":[{"system":"http://terminology.hl7.org/CodeSystem/v2-0131","code":"EP","display":"Emergency contact person"}]}],"name":{"family":"Grayson","given":["Jack"]},"telecom":[{"system":"phone","value":"0789 1234567","use":"mobile","rank":1}],"gender":"male"}],"communication":[{"language":{"coding":[{"system":"https://fhir.hl7.org.uk/CodeSystem/UKCore-HumanLanguage","code":"en","display":"English"}]},"preferred":true}],"generalPractitioner":[{"reference":"urn:uuid:c8c21609-cb27-4958-8eb2-37c76f3def85"}]}},{"fullUrl":"urn:uuid:c8c21609-cb27-4958-8eb2-37c76f3def85","resource":{"resourceType":"Organization","meta":{"lastUpdated":"2023-12-26T15:23:30.8185338+00:00","profile":["https://fhir.hl7.org.uk/StructureDefinition/UKCore-Organization"]},"identifier":[{"system":"https://fhir.nhs.uk/id/ods-organization-code","value":"G82080"}],"name":"Patient's Surgery"}},{"fullUrl":"urn:uuid:10397afd-479c-42ea-9d5d-e4024481e0f8","resource":{"resourceType":"Organization","meta":{"lastUpdated":"2023-12-26T15:00:00.8185338+00:00","profile":["https://fhir.hl7.org.uk/StructureDefinition/UKCore-Organization"]},"name":"Receiver Organization"}},{"fullUrl":"urn:uuid:07939a0c-2854-46ff-9282-ad906bc93679","resource":{"resourceType":"Organization","meta":{"lastUpdated":"2023-12-26T15:30:00.8185338+00:00","profile":["https://fhir.hl7.org.uk/StructureDefinition/UKCore-Organization"]},"identifier":[{"system":"https://fhir.nhs.uk/id/ods-organization-code","value":"RND"}],"name":"Sender Organization"}},{"fullUrl":"urn:uuid:1e744e34-6bbb-4aa9-8b20-fa3bb91f9d8f","resource":{"resourceType":"PractitionerRole","meta":{"lastUpdated":"2023-12-26T15:30:30.8185338+00:00","profile":["https://fhir.hl7.org.uk/StructureDefinition/UKCore-PractitionerRole"]},"practitioner":{"reference":"urn:uuid:07dec093-be12-42f4-ade5-0d582d255ef1"},"organization":{"reference":"urn:uuid:07939a0c-2854-46ff-9282-ad906bc93679"},"specialty":[{"coding":[{"system":"http://snomed.info/sct","code":"408443003","display":"General medical practice"}]}]}},{"fullUrl":"urn:uuid:07dec093-be12-42f4-ade5-0d582d255ef1","resource":{"resourceType":"Practitioner","meta":{"lastUpdated":"2023-12-26T15:30:30.8185338+00:00","profile":["https://fhir.hl7.org.uk/StructureDefinition/UKCore-Practitioner"]},"identifier":[{"system":"https://fhir.nhs.uk/Id/sds-role-profile-id","value":"G823658"}],"name":[{"family":"Smith","given":["Alex"]}],"telecom":[{"system":"phone","value":"0205663333","use":"work"}]}}]}