{"resourceType":"Bundle","id":"9ae77bb4-db12-42f3-a90c-733fe232f26c","meta":{"versionId":"1.0.0-beta","lastUpdated":"2023-06-26T11:30:00.8185338+00:00","profile":["https://fhir.nhs.uk/StructureDefinition/BARSBundleMessage"]},"type":"message","timestamp":"2023-06-26T11:30:00+00:00","entry":[{"fullUrl":"urn:uuid:c89a8895-56fe-41de-b20b-fab6efa99c99","resource":{"resourceType":"MessageHeader","meta":{"lastUpdated":"2023-06-26T11:30:00.8185338+00:00","profile":["https://fhir.nhs.uk/StructureDefinition/BARSMessageHeader-servicerequest-request"]},"extension":[{"url":"https://fhir.nhs.uk/StructureDefinition/CDSSExtension","extension":[{"url":"RequesterCDSSsoftware","valueString":"CDSS Assessment Tool"},{"url":"RequesterCDSSversion","valueString":"1.2.0"}]}],"eventCoding":{"system":"https://fhir.nhs.uk/CodeSystem/message-events-bars","code":"servicerequest-request"},"destination":[{"endpoint":"https://fhir.nhs.uk/Id/dos-service-id|111111111","receiver":{"reference":"urn:uuid:d5ffd0cd-ec7e-48a1-84f1-91f4c0eb8fc5"}}],"sender":{"reference":"urn:uuid:07939a0c-2854-46ff-9282-ad906bc93679"},"source":{"name":"Emergency service","software":"Anon Patient Manager","version":"2.1.45","contact":{"system":"phone","value":"+44 (0113) 123 4567"},"endpoint":"https://fhir.nhs.uk/Id/dos-service-id|2222222222"},"reason":{"coding":[{"system":"https://fhir.nhs.uk/CodeSystem/message-reason-bars","code":"new"}]},"focus":[{"reference":"urn:uuid:236bb75d-90ef-461f-b71e-fde7f899802c"}],"definition":"https://fhir.nhs.uk/MessageDefinition/bars-message-servicerequest-request-referral"}},{"fullUrl":"urn:uuid:236bb75d-90ef-461f-b71e-fde7f899802c","resource":{"resourceType":"ServiceRequest","meta":{"lastUpdated":"2023-06-26T11:30:00.8185338+00:00","profile":["https://fhir.nhs.uk/StructureDefinition/BARSServiceRequest-request-referral"]},"basedOn":[{"reference":"urn:uuid:38e9c018-adbb-4579-9cd8-45f4f890b93b"}],"status":"active","intent":"plan","category":[{"coding":[{"system":"https://fhir.nhs.uk/CodeSystem/message-category-servicerequest","code":"referral","display":"Transfer of Care"},{"system":"https://fhir.nhs.uk/CodeSystem/usecases-categories-bars","code":"referraltopharmacy","display":"Referral to Pharmacy"}]}],"subject":{"reference":"urn:uuid:9589fb37-87a2-48d8-968f-b371429208a8"},"encounter":{"reference":"urn:uuid:8c63d621-4d86-4f57-8699-e8e22d49935d"},"occurrencePeriod":{"start":"2023-06-26T11:30:00+00:00","end":"2023-06-27T11:30:00+00:00"},"authoredOn":"2023-06-26T11:30:00+00:00","requester":{"reference":"urn:uuid:7d948662-bade-450e-b6c5-9bb6ee39cb56"},"performer":[{"reference":"urn:uuid:94267a2d-75b3-44d9-8d46-d65b36332a31"}]}},{"fullUrl":"urn:uuid:8c63d621-4d86-4f57-8699-e8e22d49935d","resource":{"resourceType":"Encounter","meta":{"lastUpdated":"2023-06-26T11:30:00.8185338+00:00","profile":["https://fhir.hl7.org.uk/StructureDefinition/UKCore-Encounter"]},"identifier":[{"system":"https://sender.url/Id/case-number","value":"sender1234"}],"status":"finished","class":{"system":"http://terminology.hl7.org/CodeSystem/v3-ActCode","code":"EMER","display":"emergency"},"subject":{"reference":"urn:uuid:9589fb37-87a2-48d8-968f-b371429208a8"},"episodeOfCare":[{"reference":"EpisodeOfCare/d877b820-e72b-44d1-a627-195f54bfc606"}],"period":{"start":"2023-06-26T11:30:00+00:00"}}},{"fullUrl":"urn:uuid:38e9c018-adbb-4579-9cd8-45f4f890b93b","resource":{"resourceType":"CarePlan","meta":{"lastUpdated":"2023-06-26T11:30:00.8185338+00:00","profile":["https://fhir.hl7.org.uk/StructureDefinition/UKCore-CarePlan"]},"status":"completed","intent":"plan","subject":{"reference":"urn:uuid:9589fb37-87a2-48d8-968f-b371429208a8"},"encounter":{"reference":"urn:uuid:8c63d621-4d86-4f57-8699-e8e22d49935d"},"addresses":[{"reference":"urn:uuid:4b816945-a51b-47c4-9efd-4d7f94c8e8b4"}],"activity":[{"reference":{"reference":"urn:uuid:d0f8ec8e-0602-4d02-af8a-7b3cb72be5c0"},"outcomeCodeableConcept":[{"text":"Who is this query about constipation about?: An adult or child over 10 years old\\n Do you have constipation and any of the following apply to you?: None of the above\\n\\n Symptoms: 2/7 hx constipation\\n\\n Self-care / medication already tried: None\\n\\n Patient concerns: Unable to pass stool dor 2/7; straining.\\n"}]}]}},{"fullUrl":"urn:uuid:d0f8ec8e-0602-4d02-af8a-7b3cb72be5c0","resource":{"resourceType":"Task","meta":{"lastUpdated":"2023-06-26T11:30:00.8185338+00:00","profile":["https://fhir.hl7.org.uk/StructureDefinition/UKCore-Task"]},"id":"d0f8ec8e-0602-4d02-af8a-7b3cb72be5c0","status":"requested","intent":"order","code":{"coding":[{"system":"http://snomed.info/sct","code":"1577041000000109","display":"Community Pharmacist Consultation Service for minor illness (procedure)"}]},"description":"Patient will contact pharmacy service in 24 hours. If, upon receipt, the pharmacist has concerns over the patient's condition they should contact the patient.","authoredOn":"2023-06-26T11:30:00.259000+00:00"}},{"fullUrl":"urn:uuid:4b816945-a51b-47c4-9efd-4d7f94c8e8b4","resource":{"resourceType":"Condition","meta":{"lastUpdated":"2023-06-26T11:30:00.8185338+00:00","profile":["https://fhir.hl7.org.uk/StructureDefinition/UKCore-Condition"]},"id":"4b816945-a51b-47c4-9efd-4d7f94c8e8b4","clinicalStatus":{"coding":[{"system":"http://terminology.hl7.org/CodeSystem/condition-clinical","code":"active"}]},"verificationStatus":{"coding":[{"system":"http://terminology.hl7.org/CodeSystem/condition-ver-status","code":"provisional"}]},"category":[{"coding":[{"system":"http://snomed.info/sct","code":"33962009","display":"Presenting complaint"}]}],"code":{"text":"Vomiting"},"subject":{"reference":"urn:uuid:9589fb37-87a2-48d8-968f-b371429208a8"},"encounter":{"reference":"urn:uuid:8c63d621-4d86-4f57-8699-e8e22d49935d"},"onsetDateTime":"2023-06-26"}},{"fullUrl":"urn:uuid:9589fb37-87a2-48d8-968f-b371429208a8","resource":{"resourceType":"Patient","meta":{"lastUpdated":"2023-06-26T11:30:00.8185338+00:00","profile":["https://fhir.hl7.org.uk/StructureDefinition/UKCore-Patient"]},"extension":[{"url":"https://fhir.hl7.org.uk/StructureDefinition/Extension-UKCore-EthnicCategory","valueCodeableConcept":{"coding":[{"system":"https://fhir.hl7.org.uk/CodeSystem/UKCore-EthnicCategory","code":"A","display":"British, Mixed British"}]}},{"url":"http://hl7.org/fhir/StructureDefinition/patient-religion","valueCodeableConcept":{"coding":[{"system":"http://terminology.hl7.org/CodeSystem/v3-ReligiousAffiliation","code":"1041","display":"Roman Catholic Church"}]}}],"identifier":[{"extension":[{"url":"https://fhir.hl7.org.uk/StructureDefinition/Extension-UKCore-NHSNumberVerificationStatus","valueCodeableConcept":{"coding":[{"system":"https://fhir.hl7.org.uk/CodeSystem/UKCore-NHSNumberVerificationStatus","code":"number-present-and-verified","display":"Number present and verified"}]}}],"system":"https://fhir.nhs.uk/Id/nhs-number","value":"3478526985"}],"name":[{"use":"official","text":"Mrs Julie Jones","family":"Jones","given":["Julie"],"prefix":["Mrs"]}],"gender":"female","birthDate":"1959-05-04","address":[{"use":"home","type":"both","text":"22 Brightside Crescent, Overtown, West Yorkshire, LS10 4YU","line":["22 Brightside Crescent"],"city":"Overtown","district":"West Yorkshire","postalCode":"LS10 4YU"}],"contact":[{"extension":[{"url":"https://fhir.hl7.org.uk/StructureDefinition/Extension-UKCore-ContactRank","valuePositiveInt":1}],"relationship":[{"coding":[{"system":"http://terminology.hl7.org/CodeSystem/v3-RoleCode","code":"ONESELF","display":"self"}]}],"telecom":[{"system":"phone","value":"01138698975","use":"home","rank":2},{"system":"phone","value":"07736312544","use":"mobile","rank":1},{"system":"email","value":"jjones@hotmail.co.uk","use":"home","rank":3}]},{"extension":[{"url":"https://fhir.hl7.org.uk/StructureDefinition/Extension-UKCore-ContactRank","valuePositiveInt":2}],"relationship":[{"coding":[{"system":"http://terminology.hl7.org/CodeSystem/v3-RoleCode","code":"ECON","display":"emergency contact"}]}],"name":{"family":"Grayson","given":["Jack"]},"telecom":[{"system":"phone","value":"0789 1234567","use":"mobile","rank":1}],"gender":"male"}],"communication":[{"language":{"coding":[{"system":"https://fhir.hl7.org.uk/CodeSystem/UKCore-HumanLanguage","code":"en","display":"English"}]},"preferred":true}],"generalPractitioner":[{"reference":"urn:uuid:c8c21609-cb27-4958-8eb2-37c76f3def85"}]}},{"fullUrl":"urn:uuid:1e744e34-6bbb-4aa9-8b20-fa3bb91f9d8f","resource":{"resourceType":"PractitionerRole","meta":{"lastUpdated":"2023-06-26T11:30:00.8185338+00:00","profile":["https://fhir.hl7.org.uk/StructureDefinition/UKCore-PractitionerRole"]},"practitioner":{"reference":"urn:uuid:07dec093-be12-42f4-ade5-0d582d255ef1"},"organization":{"reference":"urn:uuid:c8c21609-cb27-4958-8eb2-37c76f3def85"},"specialty":[{"coding":[{"system":"http://snomed.info/sct","code":"408443003","display":"General medical practice"}]}]}},{"fullUrl":"urn:uuid:b5e27389-3ca5-4cbc-9173-73f0c74915d9","resource":{"resourceType":"Organization","meta":{"lastUpdated":"2023-06-26T11:30:00.8185338+00:00","profile":["https://fhir.hl7.org.uk/StructureDefinition/UKCore-Organization"]},"name":"Practitioner Org"}},{"fullUrl":"urn:uuid:c8c21609-cb27-4958-8eb2-37c76f3def85","resource":{"resourceType":"Organization","meta":{"lastUpdated":"2023-06-26T11:30:00.8185338+00:00","profile":["https://fhir.hl7.org.uk/StructureDefinition/UKCore-Organization"]},"identifier":[{"system":"https://fhir.nhs.uk/id/ods-organization-code","value":"G82080"}],"name":"Patient's Surgery"}},{"fullUrl":"urn:uuid:07dec093-be12-42f4-ade5-0d582d255ef1","resource":{"resourceType":"Practitioner","meta":{"lastUpdated":"2023-06-26T11:30:00.8185338+00:00","profile":["https://fhir.hl7.org.uk/StructureDefinition/UKCore-Practitioner"]},"identifier":[{"system":"https://fhir.nhs.uk/Id/sds-role-profile-id","value":"G823658"}],"name":[{"family":"Smith","given":["John"]}],"telecom":[{"system":"phone","value":"0205663859","use":"work"}]}},{"fullUrl":"urn:uuid:d5ffd0cd-ec7e-48a1-84f1-91f4c0eb8fc5","resource":{"resourceType":"Organization","meta":{"lastUpdated":"2023-06-26T11:30:00.8185338+00:00","profile":["https://fhir.hl7.org.uk/StructureDefinition/UKCore-Organization"]},"identifier":[{"system":"https://fhir.nhs.uk/id/ods-organization-code","value":"RYE"}],"name":"Receiving/performing Organization"}},{"fullUrl":"urn:uuid:07939a0c-2854-46ff-9282-ad906bc93679","resource":{"resourceType":"Organization","meta":{"lastUpdated":"2023-06-26T11:30:00.8185338+00:00","profile":["https://fhir.hl7.org.uk/StructureDefinition/UKCore-Organization"]},"identifier":[{"system":"https://fhir.nhs.uk/id/ods-organization-code","value":"RND"}],"name":"Sender Organization"}},{"fullUrl":"urn:uuid:7d948662-bade-450e-b6c5-9bb6ee39cb56","resource":{"resourceType":"Practitioner","meta":{"lastUpdated":"2023-06-26T11:30:00.8185338+00:00","profile":["https://fhir.hl7.org.uk/StructureDefinition/UKCore-Practitioner"]},"identifier":[{"system":"https://fhir.nhs.uk/Id/sds-role-profile-id","value":"PT2489"}],"name":[{"family":"BLAKE","given":["Marcy"]}],"telecom":[{"system":"phone","value":"0205568263","use":"work"}]}},{"fullUrl":"urn:uuid:b923aa53-2376-4015-a07d-afe8bf2310eb","resource":{"resourceType":"PractitionerRole","meta":{"lastUpdated":"2023-06-26T11:30:00.8185338+00:00","profile":["https://fhir.hl7.org.uk/StructureDefinition/UKCore-PractitionerRole"]},"practitioner":{"reference":"urn:uuid:7d948662-bade-450e-b6c5-9bb6ee39cb56"},"organization":{"reference":"urn:uuid:b5e27389-3ca5-4cbc-9173-73f0c74915d9"},"code":[{"coding":[{"system":"http://snomed.info/sct","code":"224608005","display":"Administrative healthcare staff"}]}],"specialty":[{"coding":[{"system":"http://snomed.info/sct","code":"408443003","display":"General medical practice"}]}]}},{"fullUrl":"urn:uuid:94267a2d-75b3-44d9-8d46-d65b36332a31","resource":{"resourceType":"HealthcareService","meta":{"lastUpdated":"2023-06-26T11:30:00.8185338+00:00","profile":["http://hl7.org/fhir/StructureDefinition/HealthcareService","https://fhir.hl7.org.uk/StructureDefinition/UKCore-HealthcareService"]},"identifier":[{"system":"http://fhir.nhs.uk/Id/dos-service-id","value":"111111111"}],"active":true,"providedBy":{"reference":"urn:uuid:d5ffd0cd-ec7e-48a1-84f1-91f4c0eb8fc5"},"name":"Emergency Department - Adult"}},{"fullUrl":"urn:uuid:1e91008e-96d0-438b-873c-c6d2c007fc29","resource":{"resourceType":"Consent","meta":{"lastUpdated":"2023-06-26T11:30:00.8185338+00:00","profile":["https://fhir.hl7.org.uk/StructureDefinition/UKCore-Consent"]},"status":"active","scope":{"coding":[{"system":"http://terminology.hl7.org/CodeSystem/consentscope","code":"patient-privacy"}]},"category":[{"coding":[{"system":"https://fhir.nhs.uk/CodeSystem/consent-categories-bars","code":"DRC","display":"Direct Care"}]}],"patient":{"reference":"urn:uuid:9589fb37-87a2-48d8-968f-b371429208a8"},"dateTime":"2021-11-26","policyRule":{"coding":[{"system":"http://terminology.hl7.org/CodeSystem/v3-ActCode","code":"IMPLIED"}]}}}]}