{"resourceType":"Bundle","id":"a961e68a-50e9-4988-9b14-4bfa4629d761","meta":{"versionId":"1.1.0","lastUpdated":"2021-11-26T15:03:00.8185338+00:00","profile":["https://fhir.nhs.uk/StructureDefinition/BARSBundleMessage"]},"type":"message","timestamp":"2021-11-26T15:03:00+00:00","entry":[{"fullUrl":"urn:uuid:1cbdfb97-5859-48a4-8301-d54eab818d68","resource":{"resourceType":"MessageHeader","meta":{"lastUpdated":"2021-11-26T15:03:00.8185338+00:00","profile":["https://fhir.nhs.uk/StructureDefinition/BARSMessageHeader-servicerequest-request"]},"extension":[{"url":"https://fhir.nhs.uk/StructureDefinition/CDSSExtension","extension":[{"url":"RequesterCDSSsoftware","valueString":"Pathways"},{"url":"RequesterCDSSversion","valueString":"30.2.0"}]}],"eventCoding":{"system":"https://fhir.nhs.uk/CodeSystem/message-events-bars","code":"servicerequest-request"},"destination":[{"endpoint":"https://fhir.nhs.uk/Id/dos-service-id|111111111","receiver":{"reference":"urn:uuid:10397afd-479c-42ea-9d5d-e4024481e0f8"}}],"sender":{"reference":"urn:uuid:07939a0c-2854-46ff-9282-ad906bc93679"},"source":{"name":"Emergency service","software":"Patient Manager","version":"1.7","contact":{"system":"phone","value":"+44 (0113) 123 4567"},"endpoint":"https://fhir.nhs.uk/Id/dos-service-id|2222222222"},"reason":{"coding":[{"system":"https://fhir.nhs.uk/CodeSystem/message-reason-bars","code":"delete"}]},"focus":[{"reference":"urn:uuid:236bb75d-90ef-461f-b71e-fde7f899802c"}]}},{"fullUrl":"urn:uuid:236bb75d-90ef-461f-b71e-fde7f899802c","resource":{"resourceType":"ServiceRequest","meta":{"lastUpdated":"2021-11-26T15:03:00.8185338+00:00","profile":["https://fhir.nhs.uk/StructureDefinition/BARSServiceRequest-request-validation"]},"status":"entered-in-error","intent":"plan","category":[{"coding":[{"system":"https://fhir.nhs.uk/CodeSystem/message-category-servicerequest","code":"validation","display":"For Validation"}]}],"subject":{"reference":"urn:uuid:9589fb37-87a2-48d8-968f-b371429208a8"},"occurrencePeriod":{"start":"2021-11-26T15:00:00+00:00","end":"2021-11-26T15:20:00+00:00"}}},{"fullUrl":"urn:uuid:9589fb37-87a2-48d8-968f-b371429208a8","resource":{"resourceType":"Patient","meta":{"lastUpdated":"2021-11-26T15:00:00.8185338+00:00","profile":["https://fhir.hl7.org.uk/StructureDefinition/UKCore-Patient"]},"extension":[{"url":"https://fhir.hl7.org.uk/StructureDefinition/Extension-UKCore-EthnicCategory","valueCodeableConcept":{"coding":[{"system":"https://fhir.hl7.org.uk/CodeSystem/UKCore-EthnicCategory","code":"A","display":"British, Mixed British"}]}},{"url":"http://hl7.org/fhir/StructureDefinition/patient-religion","valueCodeableConcept":{"coding":[{"system":"http://terminology.hl7.org/CodeSystem/v3-ReligiousAffiliation","code":"1041","display":"Roman Catholic Church"}]}}],"identifier":[{"extension":[{"url":"https://fhir.hl7.org.uk/StructureDefinition/Extension-UKCore-NHSNumberVerificationStatus","valueCodeableConcept":{"coding":[{"system":"https://fhir.hl7.org.uk/CodeSystem/UKCore-NHSNumberVerificationStatus","code":"number-present-and-verified","display":"Number present and verified"}]}}],"system":"https://fhir.nhs.uk/Id/nhs-number","value":"3478526985"}],"name":[{"use":"official","text":"Mrs Julie Jones","family":"Jones","given":["Julie"],"prefix":["Mrs"]}],"gender":"female","birthDate":"1959-05-04","address":[{"use":"home","type":"both","text":"22 Brightside Crescent, Overtown, West Yorkshire, LS10 4YU","line":["22 Brightside Crescent"],"city":"Overtown","district":"West Yorkshire","postalCode":"LS10 4YU"}],"contact":[{"extension":[{"url":"https://fhir.hl7.org.uk/StructureDefinition/Extension-UKCore-ContactRank","valuePositiveInt":1}],"telecom":[{"system":"phone","value":"01138698975","use":"home","rank":2},{"system":"phone","value":"07736312544","use":"mobile","rank":1},{"system":"email","value":"jjones@hotmail.co.uk","use":"home","rank":1}]},{"relationship":[{"coding":[{"system":"http://terminology.hl7.org/CodeSystem/v2-0131","code":"EP"}]}],"name":{"family":"Grayson","given":["Jack"]},"telecom":[{"system":"phone","value":"0789 1234567","rank":3}],"gender":"male"}],"communication":[{"language":{"coding":[{"system":"https://fhir.hl7.org.uk/CodeSystem/UKCore-HumanLanguage","code":"en","display":"English"}]},"preferred":true}]}},{"fullUrl":"urn:uuid:10397afd-479c-42ea-9d5d-e4024481e0f8","resource":{"resourceType":"Organization","meta":{"lastUpdated":"2021-11-26T15:03:00.8185338+00:00","profile":["https://fhir.hl7.org.uk/StructureDefinition/UKCore-Organization"]},"name":"Receiver Organization"}},{"fullUrl":"urn:uuid:07939a0c-2854-46ff-9282-ad906bc93679","resource":{"resourceType":"Organization","meta":{"lastUpdated":"2021-11-26T15:03:00.8185338+00:00","profile":["https://fhir.hl7.org.uk/StructureDefinition/UKCore-Organization"]},"identifier":[{"system":"https://fhir.nhs.uk/id/ods-organization-code","value":"RND"}],"name":"Sender Organization"}}]}