{"resourceType":"Bundle","id":"b8465a28-89ce-4530-8234-6fbe4aef6001","meta":{"versionId":"1.1.0","lastUpdated":"2021-11-26T15:04:00.8185338+00:00","profile":["https://fhir.nhs.uk/StructureDefinition/BARSBundleMessage"]},"type":"message","timestamp":"2021-11-26T15:00:00+00:00","entry":[{"fullUrl":"urn:uuid:1cbdfb97-5859-48a4-8301-d54eab818d68","resource":{"resourceType":"MessageHeader","id":"1cbdfb97-5859-48a4-8301-d54eab818d68","meta":{"lastUpdated":"2021-11-26T15:00:00.8185338+00:00","profile":["https://fhir.nhs.uk/StructureDefinition/BARSMessageHeader-servicerequest-response"]},"extension":[{"url":"https://fhir.nhs.uk/StructureDefinition/CDSSExtension","extension":[{"url":"RequesterCDSSsoftware","valueString":"Pathways"},{"url":"RequesterCDSSversion","valueString":"30.2.0"}]}],"eventCoding":{"system":"https://fhir.nhs.uk/CodeSystem/message-events-bars","code":"servicerequest-response"},"destination":[{"endpoint":"https://fhir.nhs.uk/Id/dos-service-id|111111111","receiver":{"reference":"urn:uuid:07939a0c-2854-46ff-9282-ad906bc93679"}}],"sender":{"reference":"urn:uuid:10397afd-479c-42ea-9d5d-e4024481e0f8"},"source":{"name":"Emergency service","software":"Patient Manager","version":"1.7","contact":{"system":"phone","value":"+44 (0113) 123 4567"},"endpoint":"https://fhir.nhs.uk/Id/dos-service-id|2222222222"},"reason":{"coding":[{"system":"https://fhir.nhs.uk/CodeSystem/message-reason-bars","code":"new"}]},"response":{"identifier":"86e3371d-1c15-4862-9552-d9560f8292ba","code":"ok"},"focus":[{"reference":"urn:uuid:b83d13e2-8c2e-422c-88ac-63b8e86a4413"}],"definition":"https://fhir.nhs.uk/MessageDefinition/bars-message-servicerequest-response-validation-interim"}},{"fullUrl":"urn:uuid:236bb75d-90ef-461f-b71e-fde7f899802c","resource":{"resourceType":"ServiceRequest","id":"236bb75d-90ef-461f-b71e-fde7f899802c","meta":{"lastUpdated":"2021-11-26T15:17:00.8185338+00:00","profile":["https://fhir.nhs.uk/StructureDefinition/BARSServiceRequest-request-validation"]},"status":"active","intent":"plan","category":[{"coding":[{"system":"https://fhir.nhs.uk/CodeSystem/message-category-servicerequest","code":"validation","display":"For Validation"},{"system":"https://fhir.nhs.uk/CodeSystem/usecases-categories-bars","code":"999casvalidation","display":"999-CAS Validation"}]}],"subject":{"reference":"urn:uuid:9589fb37-87a2-48d8-968f-b371429208a8"},"encounter":{"reference":"urn:uuid:8c63d621-4d86-4f57-8699-e8e22d49935d"},"occurrencePeriod":{"start":"2021-11-26T15:00:00+00:00","end":"2021-11-26T15:20:00+00:00"}}},{"fullUrl":"urn:uuid:8c63d621-4d86-4f57-8699-e8e22d49935d","resource":{"resourceType":"Encounter","id":"8c63d621-4d86-4f57-8699-e8e22d49935d","meta":{"lastUpdated":"2021-11-26T15:17:00.8185338+00:00","profile":["https://fhir.hl7.org.uk/StructureDefinition/UKCore-Encounter"]},"identifier":[{"system":"https://sender.url/Id/case-number","value":"sender1234"}],"status":"triaged","class":{"system":"http://terminology.hl7.org/CodeSystem/v3-ActCode","code":"EMER","display":"emergency"},"subject":{"reference":"urn:uuid:9589fb37-87a2-48d8-968f-b371429208a8"},"episodeOfCare":[{"reference":"EpisodeOfCare/d877b820-e72b-44d1-a627-195f54bfc606"}],"period":{"start":"2021-11-26T15:00:00+00:00"}}},{"fullUrl":"urn:uuid:b83d13e2-8c2e-422c-88ac-63b8e86a4413","resource":{"resourceType":"Encounter","id":"b83d13e2-8c2e-422c-88ac-63b8e86a4413","meta":{"lastUpdated":"2021-11-26T15:04:00.8185338+00:00","profile":["https://fhir.hl7.org.uk/StructureDefinition/UKCore-Encounter"]},"identifier":[{"system":"https://receiver.url/Id/case-number","value":"receiver1234"}],"status":"in-progress","class":{"system":"http://terminology.hl7.org/CodeSystem/v3-ActCode","code":"EMER","display":"emergency"},"subject":{"reference":"urn:uuid:9589fb37-87a2-48d8-968f-b371429208a8"},"episodeOfCare":[{"reference":"EpisodeOfCare/d877b820-e72b-44d1-a627-195f54bfc606"}],"period":{"start":"2021-11-26T15:04:00+00:00"},"reasonCode":[{"coding":[{"system":"https://fhir.nhs.uk/CodeSystem/message-reason-encounter","code":"validation-triage-outcome","display":"Validation of triage outcome"}]}]}},{"fullUrl":"urn:uuid:9589fb37-87a2-48d8-968f-b371429208a8","resource":{"resourceType":"Patient","id":"9589fb37-87a2-48d8-968f-b371429208a8","meta":{"lastUpdated":"2021-11-26T15:04:00.8185338+00:00","profile":["https://fhir.hl7.org.uk/StructureDefinition/UKCore-Patient"]},"extension":[{"url":"https://fhir.hl7.org.uk/StructureDefinition/Extension-UKCore-EthnicCategory","valueCodeableConcept":{"coding":[{"system":"https://fhir.hl7.org.uk/CodeSystem/UKCore-EthnicCategory","code":"A","display":"British, Mixed British"}]}},{"url":"http://hl7.org/fhir/StructureDefinition/patient-religion","valueCodeableConcept":{"coding":[{"system":"http://terminology.hl7.org/CodeSystem/v3-ReligiousAffiliation","code":"1041","display":"Roman Catholic Church"}]}}],"identifier":[{"extension":[{"url":"https://fhir.hl7.org.uk/StructureDefinition/Extension-UKCore-NHSNumberVerificationStatus","valueCodeableConcept":{"coding":[{"system":"https://fhir.hl7.org.uk/CodeSystem/UKCore-NHSNumberVerificationStatus","code":"number-present-and-verified","display":"Number present and verified"}]}}],"system":"https://fhir.nhs.uk/Id/nhs-number","value":"3478526985"}],"name":[{"use":"official","text":"Mrs Julie Jones","family":"Jones","given":["Julie"],"prefix":["Mrs"]}],"gender":"female","birthDate":"1959-05-04","address":[{"use":"home","type":"both","text":"22 Brightside Crescent, Overtown, West Yorkshire, LS10 4YU","line":["22 Brightside Crescent"],"city":"Overtown","district":"West Yorkshire","postalCode":"LS10 4YU"}],"contact":[{"extension":[{"url":"https://fhir.hl7.org.uk/StructureDefinition/Extension-UKCore-ContactRank","valuePositiveInt":1}],"telecom":[{"system":"phone","value":"01138698975","use":"home","rank":2},{"system":"phone","value":"07736312544","use":"mobile","rank":1},{"system":"email","value":"jjones@hotmail.co.uk","use":"home","rank":1}]},{"relationship":[{"coding":[{"system":"http://terminology.hl7.org/CodeSystem/v2-0131","code":"EP"}]}],"name":{"family":"Grayson","given":["Jack"]},"telecom":[{"system":"phone","value":"0789 1234567","rank":3}],"gender":"male"}],"communication":[{"language":{"coding":[{"system":"https://fhir.hl7.org.uk/CodeSystem/UKCore-HumanLanguage","code":"en","display":"English"}]},"preferred":true}]}},{"fullUrl":"urn:uuid:b5e27389-3ca5-4cbc-9173-73f0c74915d9","resource":{"resourceType":"Organization","id":"b5e27389-3ca5-4cbc-9173-73f0c74915d9","meta":{"lastUpdated":"2021-11-26T15:17:00.8185338+00:00","profile":["https://fhir.hl7.org.uk/StructureDefinition/UKCore-Organization"]},"name":"Practitioner Org"}},{"fullUrl":"urn:uuid:10397afd-479c-42ea-9d5d-e4024481e0f8","resource":{"resourceType":"Organization","id":"10397afd-479c-42ea-9d5d-e4024481e0f8","meta":{"lastUpdated":"2021-11-26T15:04:00.8185338+00:00","profile":["https://fhir.hl7.org.uk/StructureDefinition/UKCore-Organization"]},"name":"Receiver Organization"}},{"fullUrl":"urn:uuid:07939a0c-2854-46ff-9282-ad906bc93679","resource":{"resourceType":"Organization","id":"07939a0c-2854-46ff-9282-ad906bc93679","meta":{"lastUpdated":"2021-11-26T15:04:00.8185338+00:00","profile":["https://fhir.hl7.org.uk/StructureDefinition/UKCore-Organization"]},"identifier":[{"system":"https://fhir.nhs.uk/id/ods-organization-code","value":"RND"}],"name":"Sender Organization"}},{"fullUrl":"urn:uuid:7d948662-bade-450e-b6c5-9bb6ee39cb56","resource":{"resourceType":"Practitioner","id":"7d948662-bade-450e-b6c5-9bb6ee39cb56","meta":{"lastUpdated":"2021-11-26T15:17:00.8185338+00:00","profile":["https://fhir.hl7.org.uk/StructureDefinition/UKCore-Practitioner"]},"identifier":[{"system":"https://fhir.nhs.uk/Id/sds-role-profile-id","value":"PT2489"}],"name":[{"family":"BLAKE","given":["Marcy"]}],"telecom":[{"system":"phone","value":"0205568263","use":"work"}]}},{"fullUrl":"urn:uuid:b923aa53-2376-4015-a07d-afe8bf2310eb","resource":{"resourceType":"PractitionerRole","id":"b923aa53-2376-4015-a07d-afe8bf2310eb","meta":{"lastUpdated":"2021-11-26T15:17:00.8185338+00:00","profile":["https://fhir.hl7.org.uk/StructureDefinition/UKCore-PractitionerRole"]},"practitioner":{"reference":"urn:uuid:7d948662-bade-450e-b6c5-9bb6ee39cb56"},"organization":{"reference":"urn:uuid:10397afd-479c-42ea-9d5d-e4024481e0f8"},"code":[{"coding":[{"system":"http://snomed.info/sct","code":"224608005","display":"Administrative healthcare staff"}]}],"specialty":[{"coding":[{"system":"http://snomed.info/sct","code":"408443003","display":"General medical practice"}]}]}}]}