{"resourceType":"Bundle","id":"blood-pressure-check-service--example-2","identifier":{"system":"https://fhir.provider.example/identifier/bundle","value":"blood-pressure-check-service--example-2"},"type":"message","entry":[{"fullUrl":"urn:uuid:16bc5fe1-b149-42f2-98ea-88f24c42bcce","resource":{"resourceType":"MessageHeader","id":"16bc5fe1-b149-42f2-98ea-88f24c42bcce","meta":{"lastUpdated":"2023-08-08T09:12:14.2711908+01:00","profile":["https://fhir.nhs.uk/STU3/StructureDefinition/ITK-MessageHeader-2"]},"extension":[{"url":"https://fhir.nhs.uk/STU3/StructureDefinition/Extension-ITK-MessageHandling-2","extension":[{"url":"BusAckRequested","valueBoolean":true},{"url":"InfAckRequested","valueBoolean":true},{"url":"RecipientType","valueCoding":{"system":"https://fhir.nhs.uk/STU3/CodeSystem/ITK-RecipientType-1","code":"FI","display":"For Information"}},{"url":"MessageDefinition","valueReference":{"reference":"https://fhir.nhs.uk/MessageDefinition"}},{"url":"SenderReference","valueString":"urn:uuid:e9a3673b-12d2-4001-826f-626e30d5f71e"},{"url":"LocalExtension","valueString":"None"}]}],"event":{"system":"https://fhir.nhs.uk/STU3/CodeSystem/ITK-MessageEvent-2","code":"ITK014M","display":"ITK Update Record"},"sender":{"reference":"urn:uuid:ac8977ff-22fc-4427-88d4-a0b87340717e"},"timestamp":"2023-08-08T09:13:18.3678494+01:00","source":{"endpoint":"SENDER_MESH_MAILBOX_ID"},"focus":[{"reference":"urn:uuid:b38b90b6-72a5-41b9-b977-d7092e57f106"}]}},{"fullUrl":"urn:uuid:ac8977ff-22fc-4427-88d4-a0b87340717e","resource":{"resourceType":"Organization","id":"ac8977ff-22fc-4427-88d4-a0b87340717e","meta":{"lastUpdated":"2023-08-08T09:12:14.2711908+01:00","profile":["https://fhir.nhs.uk/STU3/StructureDefinition/CareConnect-ITK-Header-Organization-1"]},"identifier":[{"system":"https://fhir.nhs.uk/Id/ods-organization-code","value":"FQW30"}]}},{"fullUrl":"urn:uuid:b38b90b6-72a5-41b9-b977-d7092e57f106","resource":{"resourceType":"Bundle","id":"b38b90b6-72a5-41b9-b977-d7092e57f106","meta":{"lastUpdated":"2023-08-08T09:13:18.3793688+01:00","profile":["https://fhir.nhs.uk/STU3/StructureDefinition/ITK-Document-Bundle-1"]},"identifier":{"system":"https://fhir.provider.example/identifier/bundle","value":"b38b90b6-72a5-41b9-b977-d7092e57f106"},"type":"document","entry":[{"fullUrl":"urn:uuid:2ce03e14-aafb-4f62-bf8a-cffe836cc530","resource":{"resourceType":"Composition","id":"2ce03e14-aafb-4f62-bf8a-cffe836cc530","meta":{"lastUpdated":"2023-08-08T09:12:14.2711908+01:00","profile":["https://fhir.hl7.org.uk/STU3/StructureDefinition/CareConnect-Composition-1"]},"identifier":{"system":"https://fhir.provider.example/identifier/composition","value":"2ce03e14-aafb-4f62-bf8a-cffe836cc530"},"status":"final","type":{"coding":[{"system":"http://snomed.info/sct","code":"1659111000000107","display":"Community Pharmacy Blood Pressure Check Service"}],"text":"Community Pharmacy Blood Pressure Check Service"},"subject":{"reference":"urn:uuid:c33b855b-4824-4876-9509-ed34de2109b4"},"encounter":{"reference":"urn:uuid:e9a3673b-12d2-4001-826f-626e30d5f71e"},"date":"2023-08-08","author":[{"reference":"urn:uuid:c11ba114-d1bf-461c-a5ee-10e82df9dcc8"}],"title":"The Dispensers - Community Pharmacist Blood Pressure Check Service","section":[{"entry":[{"reference":"urn:uuid:e9a3673b-12d2-4001-826f-626e30d5f71e"},{"reference":"urn:uuid:62db03c2-148b-4872-8d8b-2ea19871c00d"},{"reference":"urn:uuid:c11ba114-d1bf-461c-a5ee-10e82df9dcc8"},{"reference":"urn:uuid:75c5672f-b2d6-435f-80c8-a4864258162b"},{"reference":"urn:uuid:c33b855b-4824-4876-9509-ed34de2109b4"},{"reference":"urn:uuid:e7c459a8-2f3f-4968-aa37-937e0a0b88dd"},{"reference":"urn:uuid:bff68759-0cff-43ea-9f71-641873e2fc80"},{"reference":"urn:uuid:0843a500-9f0c-4043-bfd8-b03ca0e95735"},{"reference":"urn:uuid:cb8e1553-4bf1-474c-ab42-f70219b1545a"},{"reference":"urn:uuid:3ecca922-9841-43b6-8389-edc4936228dd"}]}]}},{"fullUrl":"urn:uuid:e9a3673b-12d2-4001-826f-626e30d5f71e","resource":{"resourceType":"Encounter","id":"e9a3673b-12d2-4001-826f-626e30d5f71e","meta":{"lastUpdated":"2023-08-08T09:12:14.2711908+01:00","profile":["https://fhir.nhs.uk/STU3/StructureDefinition/CareConnect-GPC-Encounter-1"]},"extension":[{"url":"https://fhir.hl7.org.uk/STU3/StructureDefinition/Extension-CareConnect-OutcomeOfAttendance-1","valueCodeableConcept":{"coding":[{"system":"https://fhir.hl7.org.uk/STU3/CodeSystem/CareConnect-OutcomeOfAttendance-1","code":"1"}],"text":"Discharged from Consultant's care (last attendance)"}}],"identifier":[{"system":"https://fhir.provider.example/identifier/encounter","value":"e9a3673b-12d2-4001-826f-626e30d5f71e"}],"status":"finished","type":[{"coding":[{"system":"http://snomed.info/sct","code":"307778003","display":"Seen in primary care establishment"}],"text":"Seen in primary care establishment"}],"subject":{"reference":"urn:uuid:c33b855b-4824-4876-9509-ed34de2109b4"},"participant":[{"individual":{"reference":"urn:uuid:c11ba114-d1bf-461c-a5ee-10e82df9dcc8"}}],"period":{"start":"2023-08-08"},"reason":[{"coding":[{"system":"http://snomed.info/sct","code":"1659111000000107","display":"Community Pharmacy Blood Pressure Check Service"}],"text":"Community Pharmacy Blood Pressure Check Service"}],"serviceProvider":{"reference":"urn:uuid:62db03c2-148b-4872-8d8b-2ea19871c00d"}}},{"fullUrl":"urn:uuid:62db03c2-148b-4872-8d8b-2ea19871c00d","resource":{"resourceType":"Organization","id":"62db03c2-148b-4872-8d8b-2ea19871c00d","meta":{"lastUpdated":"2023-08-08T09:12:14.2711908+01:00","profile":["https://fhir.nhs.uk/STU3/StructureDefinition/CareConnect-GPC-Organization-1"]},"identifier":[{"system":"https://fhir.nhs.uk/Id/ods-organization-code","value":"A(*)"}],"name":"The Dispensers"}},{"fullUrl":"urn:uuid:c11ba114-d1bf-461c-a5ee-10e82df9dcc8","resource":{"resourceType":"Practitioner","id":"c11ba114-d1bf-461c-a5ee-10e82df9dcc8","meta":{"lastUpdated":"2023-08-08T09:12:14.2711908+01:00","profile":["https://fhir.nhs.uk/STU3/StructureDefinition/CareConnect-GPC-Practitioner-1"]},"identifier":[{"system":"https://fhir.provider.example/identifier/staff","value":"c11ba114-d1bf-461c-a5ee-10e82df9dcc8"},{"system":"https://fhir.hl7.org.uk/Id/gphc-number","value":"NNNNNNN"}],"name":[{"family":"Kai-Shun","given":["Medi"],"prefix":["Dr"]}]}},{"fullUrl":"urn:uuid:75c5672f-b2d6-435f-80c8-a4864258162b","resource":{"resourceType":"PractitionerRole","id":"75c5672f-b2d6-435f-80c8-a4864258162b","meta":{"lastUpdated":"2023-08-08T09:12:14.2711908+01:00","profile":["https://fhir.nhs.uk/STU3/StructureDefinition/CareConnect-GPC-PractitionerRole-1"]},"practitioner":{"reference":"urn:uuid:c11ba114-d1bf-461c-a5ee-10e82df9dcc8"},"organization":{"reference":"urn:uuid:62db03c2-148b-4872-8d8b-2ea19871c00d"},"code":[{"coding":[{"system":"https://fhir.nhs.uk/STU3/CodeSystem/CareConnect-SDSJobRoleName-1","code":"R1290","display":"Pharmacist"}],"text":"Pharmacist"}]}},{"fullUrl":"urn:uuid:c33b855b-4824-4876-9509-ed34de2109b4","resource":{"resourceType":"Patient","id":"c33b855b-4824-4876-9509-ed34de2109b4","meta":{"lastUpdated":"2023-08-08T09:12:14.2711908+01:00","profile":["https://fhir.nhs.uk/STU3/StructureDefinition/CareConnect-GPC-Patient-1"]},"identifier":[{"extension":[{"url":"https://fhir.nhs.uk/STU3/StructureDefinition/Extension-CareConnect-GPC-NHSNumberVerificationStatus-1","valueCodeableConcept":{"coding":[{"system":"https://fhir.nhs.uk/STU3/CodeSystem/CareConnect-NHSNumberVerificationStatus-1","code":"01","display":"Number present and verified"}],"text":"Number present and verified"}}],"system":"https://fhir.nhs.uk/Id/nhs-number","value":"4857773456"},{"system":"https://fhir.provider.example/identifier/patient","value":"c33b855b-4824-4876-9509-ed34de2109b4"}],"name":[{"use":"official","family":"TEAK","given":["Anne"]}],"gender":"female","birthDate":"1971-08-08","address":[{"postalCode":"0LD TMR"}]}},{"fullUrl":"urn:uuid:e7c459a8-2f3f-4968-aa37-937e0a0b88dd","resource":{"resourceType":"Observation","id":"e7c459a8-2f3f-4968-aa37-937e0a0b88dd","meta":{"lastUpdated":"2023-08-08T09:12:14.2711908+01:00","profile":["https://fhir.nhs.uk/STU3/StructureDefinition/CareConnect-GPC-Observation-1"]},"identifier":[{"system":"https://fhir.provider.example/identifier/observation","value":"e7c459a8-2f3f-4968-aa37-937e0a0b88dd"}],"status":"final","category":[{"coding":[{"system":"http://terminology.hl7.org/CodeSystem/observation-category","code":"vital-signs","display":"Vital Signs"}],"text":"Vital Signs"}],"code":{"coding":[{"system":"http://snomed.info/sct","code":"723232008","display":"Average blood pressure"}],"text":"Average blood pressure"},"subject":{"reference":"urn:uuid:c33b855b-4824-4876-9509-ed34de2109b4"},"context":{"reference":"urn:uuid:e9a3673b-12d2-4001-826f-626e30d5f71e"},"effectiveDateTime":"2023-08-08","issued":"2023-08-08T09:13:18.4165296+01:00","performer":[{"reference":"urn:uuid:c11ba114-d1bf-461c-a5ee-10e82df9dcc8"}],"bodySite":{"coding":[{"system":"http://snomed.info/sct","code":"368208006","display":"Left upper arm structure"}],"text":"Left upper arm structure"},"component":[{"code":{"coding":[{"system":"http://snomed.info/sct","code":"72313002","display":"Systolic arterial pressure"}],"text":"Systolic arterial pressure"},"valueQuantity":{"value":158,"unit":"millimeter of mercury","system":"http://unitsofmeasure.org","code":"mm[Hg]"}},{"code":{"coding":[{"system":"http://snomed.info/sct","code":"1091811000000102","display":"Diastolic arterial pressure"}],"text":"Diastolic arterial pressure"},"valueQuantity":{"value":102,"unit":"millimeter of mercury","system":"http://unitsofmeasure.org","code":"mm[Hg]"}}]}},{"fullUrl":"urn:uuid:bff68759-0cff-43ea-9f71-641873e2fc80","resource":{"resourceType":"Observation","id":"bff68759-0cff-43ea-9f71-641873e2fc80","meta":{"lastUpdated":"2023-08-08T09:12:14.2711908+01:00","profile":["https://fhir.nhs.uk/STU3/StructureDefinition/CareConnect-GPC-Observation-1"],"tag":[{"system":"https://fhir.nhs.uk/CodeSystem/RecordStandardHeadings","code":"social-context","display":"Social context"}]},"identifier":[{"system":"https://fhir.provider.example/identifier/observation","value":"bff68759-0cff-43ea-9f71-641873e2fc80"}],"status":"final","category":[{"coding":[{"system":"http://terminology.hl7.org/CodeSystem/observation-category","code":"social-history","display":"Social History"}],"text":"Social History"}],"code":{"coding":[{"system":"http://snomed.info/sct","code":"8392000","display":"Non-smoker"}],"text":"Non-smoker"},"subject":{"reference":"urn:uuid:c33b855b-4824-4876-9509-ed34de2109b4"},"context":{"reference":"urn:uuid:e9a3673b-12d2-4001-826f-626e30d5f71e"},"effectiveDateTime":"2023-08-08","issued":"2023-08-08T09:13:18.419689+01:00","performer":[{"reference":"urn:uuid:c11ba114-d1bf-461c-a5ee-10e82df9dcc8"}]}},{"fullUrl":"urn:uuid:0843a500-9f0c-4043-bfd8-b03ca0e95735","resource":{"resourceType":"Observation","id":"0843a500-9f0c-4043-bfd8-b03ca0e95735","meta":{"lastUpdated":"2023-08-08T09:12:14.2711908+01:00","profile":["https://fhir.nhs.uk/STU3/StructureDefinition/CareConnect-GPC-Observation-1"],"tag":[{"system":"https://fhir.nhs.uk/CodeSystem/RecordStandardHeadings","code":"pregnancy-status","display":"Pregnancy status"}]},"identifier":[{"system":"https://fhir.provider.example/identifier/observation","value":"0843a500-9f0c-4043-bfd8-b03ca0e95735"}],"status":"final","category":[{"coding":[{"system":"http://terminology.hl7.org/CodeSystem/observation-category","code":"social-history","display":"Social History"}],"text":"Social History"}],"code":{"coding":[{"system":"http://snomed.info/sct","code":"60001007","display":"Not pregnant"}],"text":"Not pregnant"},"subject":{"reference":"urn:uuid:c33b855b-4824-4876-9509-ed34de2109b4"},"context":{"reference":"urn:uuid:e9a3673b-12d2-4001-826f-626e30d5f71e"},"effectiveDateTime":"2023-08-08","issued":"2023-08-08T09:13:18.419708+01:00","performer":[{"reference":"urn:uuid:c11ba114-d1bf-461c-a5ee-10e82df9dcc8"}]}},{"fullUrl":"urn:uuid:cb8e1553-4bf1-474c-ab42-f70219b1545a","resource":{"resourceType":"ClinicalImpression","id":"cb8e1553-4bf1-474c-ab42-f70219b1545a","meta":{"lastUpdated":"2023-08-08T09:12:14.2711908+01:00","profile":["https://fhir.nhs.uk/STU3/StructureDefinition/CareConnect-GPC-ClinicalImpression-1"],"tag":[{"system":"https://fhir.nhs.uk/CodeSystem/RecordStandardHeadings","code":"clinical-summary","display":"Clinical summary"}]},"identifier":[{"system":"https://fhir.provider.example/identifier/clinical-impression","value":"cb8e1553-4bf1-474c-ab42-f70219b1545a"}],"status":"completed","subject":{"reference":"urn:uuid:c33b855b-4824-4876-9509-ed34de2109b4"},"context":{"reference":"urn:uuid:e9a3673b-12d2-4001-826f-626e30d5f71e"},"date":"2023-08-08","assessor":{"reference":"urn:uuid:c11ba114-d1bf-461c-a5ee-10e82df9dcc8"},"summary":"The patient is to be monitored regularly for the blood pressure so has referred to the pharmacy for ambulatory blood pressure service."}},{"fullUrl":"urn:uuid:3ecca922-9841-43b6-8389-edc4936228dd","resource":{"resourceType":"ClinicalImpression","id":"3ecca922-9841-43b6-8389-edc4936228dd","meta":{"lastUpdated":"2023-08-08T09:12:14.2711908+01:00","profile":["https://fhir.nhs.uk/STU3/StructureDefinition/CareConnect-GPC-ClinicalImpression-1"],"tag":[{"system":"https://fhir.nhs.uk/CodeSystem/RecordStandardHeadings","code":"information-and-advice-given","display":"Information and advice given"}]},"identifier":[{"system":"https://fhir.provider.example/identifier/clinical-impression","value":"3ecca922-9841-43b6-8389-edc4936228dd"}],"status":"completed","subject":{"reference":"urn:uuid:c33b855b-4824-4876-9509-ed34de2109b4"},"context":{"reference":"urn:uuid:e9a3673b-12d2-4001-826f-626e30d5f71e"},"date":"2023-08-08","assessor":{"reference":"urn:uuid:c11ba114-d1bf-461c-a5ee-10e82df9dcc8"},"summary":"Stage 2 hypertension - referred the patient for GP appointment within 7 days. Advice given on healthy behaviours."}}]}}]}