{"resourceType":"Bundle","id":"contraception-service--example-2","identifier":{"system":"https://fhir.provider.example/identifier/bundle","value":"contraception-service--example-2"},"type":"message","entry":[{"fullUrl":"urn:uuid:f0cf6707-e5f3-419e-8279-0d5ae9e798f0","resource":{"resourceType":"MessageHeader","id":"f0cf6707-e5f3-419e-8279-0d5ae9e798f0","meta":{"lastUpdated":"2023-08-08T09:12:14.2711908+01:00","profile":["https://fhir.nhs.uk/STU3/StructureDefinition/ITK-MessageHeader-2"]},"extension":[{"url":"https://fhir.nhs.uk/STU3/StructureDefinition/Extension-ITK-MessageHandling-2","extension":[{"url":"BusAckRequested","valueBoolean":true},{"url":"InfAckRequested","valueBoolean":true},{"url":"RecipientType","valueCoding":{"system":"https://fhir.nhs.uk/STU3/CodeSystem/ITK-RecipientType-1","code":"FI","display":"For Information"}},{"url":"MessageDefinition","valueReference":{"reference":"https://fhir.nhs.uk/MessageDefinition"}},{"url":"SenderReference","valueString":"urn:uuid:29c89f25-d174-438e-9052-11fe247200fe"},{"url":"LocalExtension","valueString":"None"}]}],"event":{"system":"https://fhir.nhs.uk/STU3/CodeSystem/ITK-MessageEvent-2","code":"ITK014M","display":"ITK Update Record"},"sender":{"reference":"urn:uuid:7b309904-c0df-49f4-88b0-3543fffd0e76"},"timestamp":"2023-08-08T09:17:43.7955207+01:00","source":{"endpoint":"SENDER_MESH_MAILBOX_ID"},"focus":[{"reference":"urn:uuid:511cf6fd-6c0c-4974-a583-7937d7864418"}]}},{"fullUrl":"urn:uuid:7b309904-c0df-49f4-88b0-3543fffd0e76","resource":{"resourceType":"Organization","id":"7b309904-c0df-49f4-88b0-3543fffd0e76","meta":{"lastUpdated":"2023-08-08T09:12:14.2711908+01:00","profile":["https://fhir.nhs.uk/STU3/StructureDefinition/CareConnect-ITK-Header-Organization-1"]},"identifier":[{"system":"https://fhir.nhs.uk/Id/ods-organization-code","value":"FQW30"}]}},{"fullUrl":"urn:uuid:511cf6fd-6c0c-4974-a583-7937d7864418","resource":{"resourceType":"Bundle","id":"511cf6fd-6c0c-4974-a583-7937d7864418","meta":{"lastUpdated":"2023-08-08T09:12:14.2711908+01:00","profile":["https://fhir.nhs.uk/STU3/StructureDefinition/ITK-Document-Bundle-1"]},"identifier":{"system":"https://fhir.provider.example/identifier/bundle","value":"511cf6fd-6c0c-4974-a583-7937d7864418"},"type":"document","entry":[{"fullUrl":"urn:uuid:1a3de819-11de-4f8d-a483-2a5fd5f4e78c","resource":{"resourceType":"Composition","id":"1a3de819-11de-4f8d-a483-2a5fd5f4e78c","identifier":{"system":"https://fhir.provider.example/identifier/composition","value":"1a3de819-11de-4f8d-a483-2a5fd5f4e78c"},"status":"final","type":{"coding":[{"system":"http://snomed.info/sct","code":"1659121000000101","display":"Community Pharmacy Contraception Service"}],"text":"Community Pharmacy Contraception Service"},"subject":{"reference":"urn:uuid:db14b872-d792-44f0-aaf0-e161adade2af"},"encounter":{"reference":"urn:uuid:29c89f25-d174-438e-9052-11fe247200fe"},"date":"2023-08-08","author":[{"reference":"urn:uuid:d690b1da-dcc8-4f56-b2a2-c4fdf2f98f18"}],"title":"The Dispensers - Community Pharmacy Contraception Service","section":[{"entry":[{"reference":"urn:uuid:29c89f25-d174-438e-9052-11fe247200fe"},{"reference":"urn:uuid:795bf23b-0608-4249-aedc-0ea9270dbe24"},{"reference":"urn:uuid:d690b1da-dcc8-4f56-b2a2-c4fdf2f98f18"},{"reference":"urn:uuid:e62edd6d-8eae-48fe-8c24-d1b4dd54bc83"},{"reference":"urn:uuid:db14b872-d792-44f0-aaf0-e161adade2af"},{"reference":"urn:uuid:8fa4c9c2-399b-4c6d-a805-bb0c3e1993af"},{"reference":"urn:uuid:9f3bc9c5-9f17-4a26-a41f-1d6fcba17785"},{"reference":"urn:uuid:af2776b5-2d7b-44a5-bee6-eb57d8da00b0"},{"reference":"urn:uuid:8a290b98-ab0b-45c6-bb3f-3db136d3dad6"},{"reference":"urn:uuid:65fb215e-cbe6-42dc-b855-c24865a2e5e0"},{"reference":"urn:uuid:a5409c58-700b-45d8-bbfa-90fa8f23455c"},{"reference":"urn:uuid:132336ac-7320-41f9-a3ac-13fa03c3a235"},{"reference":"urn:uuid:745f268e-5ed4-4d55-9b7c-595d11063061"}]}]}},{"fullUrl":"urn:uuid:29c89f25-d174-438e-9052-11fe247200fe","resource":{"resourceType":"Encounter","id":"29c89f25-d174-438e-9052-11fe247200fe","meta":{"lastUpdated":"2023-08-08T09:12:14.2711908+01:00","profile":["https://fhir.nhs.uk/STU3/StructureDefinition/CareConnect-GPC-Encounter-1"]},"extension":[{"url":"https://fhir.hl7.org.uk/STU3/StructureDefinition/Extension-CareConnect-OutcomeOfAttendance-1","valueCodeableConcept":{"coding":[{"system":"https://fhir.hl7.org.uk/STU3/CodeSystem/CareConnect-OutcomeOfAttendance-1","code":"1"}],"text":"Discharged from Consultant's care (last attendance)"}}],"identifier":[{"system":"https://fhir.provider.example/identifier/encounter","value":"29c89f25-d174-438e-9052-11fe247200fe"}],"status":"finished","type":[{"coding":[{"system":"http://snomed.info/sct","code":"307778003","display":"Seen in primary care establishment"}],"text":"Seen in primary care establishment"}],"subject":{"reference":"urn:uuid:db14b872-d792-44f0-aaf0-e161adade2af"},"participant":[{"individual":{"reference":"urn:uuid:d690b1da-dcc8-4f56-b2a2-c4fdf2f98f18"}}],"period":{"start":"2023-08-08"},"reason":[{"coding":[{"system":"http://snomed.info/sct","code":"1659121000000101","display":"Community Pharmacy Contraception Service"}],"text":"Community Pharmacy Contraception Service"}],"serviceProvider":{"reference":"urn:uuid:795bf23b-0608-4249-aedc-0ea9270dbe24"}}},{"fullUrl":"urn:uuid:795bf23b-0608-4249-aedc-0ea9270dbe24","resource":{"resourceType":"Organization","id":"795bf23b-0608-4249-aedc-0ea9270dbe24","meta":{"lastUpdated":"2023-08-08T09:12:14.2711908+01:00","profile":["https://fhir.nhs.uk/STU3/StructureDefinition/CareConnect-GPC-Organization-1"]},"identifier":[{"system":"https://fhir.nhs.uk/Id/ods-organization-code","value":"A(*)"}],"name":"The Dispensers"}},{"fullUrl":"urn:uuid:d690b1da-dcc8-4f56-b2a2-c4fdf2f98f18","resource":{"resourceType":"Practitioner","id":"d690b1da-dcc8-4f56-b2a2-c4fdf2f98f18","meta":{"lastUpdated":"2023-08-08T09:12:14.2711908+01:00","profile":["https://fhir.nhs.uk/STU3/StructureDefinition/CareConnect-GPC-Practitioner-1"]},"identifier":[{"system":"https://fhir.provider.example/identifier/staff","value":"d690b1da-dcc8-4f56-b2a2-c4fdf2f98f18"},{"system":"https://fhir.hl7.org.uk/Id/gphc-number","value":"NNNNNNN"}],"name":[{"family":"Kai-Shun","given":["Medi"],"prefix":["Dr"]}]}},{"fullUrl":"urn:uuid:e62edd6d-8eae-48fe-8c24-d1b4dd54bc83","resource":{"resourceType":"PractitionerRole","id":"e62edd6d-8eae-48fe-8c24-d1b4dd54bc83","meta":{"lastUpdated":"2023-08-08T09:12:14.2711908+01:00","profile":["https://fhir.nhs.uk/STU3/StructureDefinition/CareConnect-GPC-PractitionerRole-1"]},"practitioner":{"reference":"urn:uuid:d690b1da-dcc8-4f56-b2a2-c4fdf2f98f18"},"organization":{"reference":"urn:uuid:795bf23b-0608-4249-aedc-0ea9270dbe24"},"code":[{"coding":[{"system":"https://fhir.nhs.uk/STU3/CodeSystem/CareConnect-SDSJobRoleName-1","code":"R1290","display":"Pharmacist"}],"text":"Pharmacist"}]}},{"fullUrl":"urn:uuid:db14b872-d792-44f0-aaf0-e161adade2af","resource":{"resourceType":"Patient","id":"db14b872-d792-44f0-aaf0-e161adade2af","meta":{"lastUpdated":"2023-08-08T09:12:14.2711908+01:00","profile":["https://fhir.nhs.uk/STU3/StructureDefinition/CareConnect-GPC-Patient-1"]},"identifier":[{"extension":[{"url":"https://fhir.nhs.uk/STU3/StructureDefinition/Extension-CareConnect-GPC-NHSNumberVerificationStatus-1","valueCodeableConcept":{"coding":[{"system":"https://fhir.nhs.uk/STU3/CodeSystem/CareConnect-NHSNumberVerificationStatus-1","code":"01","display":"Number present and verified"}],"text":"Number present and verified"}}],"system":"https://fhir.nhs.uk/Id/nhs-number","value":"4857773456"},{"system":"https://fhir.provider.example/identifier/patient","value":"db14b872-d792-44f0-aaf0-e161adade2af"}],"name":[{"use":"official","family":"Oakey","given":["Carrie"]}],"gender":"female","birthDate":"1985-08-08","address":[{"postalCode":"SNG 2ME"}]}},{"fullUrl":"urn:uuid:8fa4c9c2-399b-4c6d-a805-bb0c3e1993af","resource":{"resourceType":"Observation","id":"8fa4c9c2-399b-4c6d-a805-bb0c3e1993af","meta":{"lastUpdated":"2023-08-08T09:12:14.2711908+01:00","profile":["https://fhir.nhs.uk/STU3/StructureDefinition/CareConnect-GPC-Observation-1"]},"identifier":[{"system":"https://fhir.provider.example/identifier/observation","value":"8fa4c9c2-399b-4c6d-a805-bb0c3e1993af"}],"status":"final","category":[{"coding":[{"system":"http://terminology.hl7.org/CodeSystem/observation-category","code":"vital-signs","display":"Vital Signs"}],"text":"Vital Signs"}],"code":{"coding":[{"system":"http://snomed.info/sct","code":"75367002","display":"Blood pressure"}],"text":"Average blood pressure"},"subject":{"reference":"urn:uuid:db14b872-d792-44f0-aaf0-e161adade2af"},"context":{"reference":"urn:uuid:29c89f25-d174-438e-9052-11fe247200fe"},"effectiveDateTime":"2023-08-08","issued":"2023-08-08T09:17:43.8246181+01:00","performer":[{"reference":"urn:uuid:d690b1da-dcc8-4f56-b2a2-c4fdf2f98f18"}],"bodySite":{"coding":[{"system":"http://snomed.info/sct","code":"368209003","display":"Right upper arm structure"}],"text":"Right upper arm structure"},"component":[{"code":{"coding":[{"system":"http://snomed.info/sct","code":"72313002","display":"Systolic arterial pressure"}],"text":"Systolic arterial pressure"},"valueQuantity":{"value":142,"unit":"millimeter of mercury","system":"http://unitsofmeasure.org","code":"mm[Hg]"}},{"code":{"coding":[{"system":"http://snomed.info/sct","code":"1091811000000102","display":"Diastolic arterial pressure"}],"text":"Diastolic arterial pressure"},"valueQuantity":{"value":90,"unit":"millimeter of mercury","system":"http://unitsofmeasure.org","code":"mm[Hg]"}}]}},{"fullUrl":"urn:uuid:9f3bc9c5-9f17-4a26-a41f-1d6fcba17785","resource":{"resourceType":"Observation","id":"9f3bc9c5-9f17-4a26-a41f-1d6fcba17785","meta":{"lastUpdated":"2023-08-08T09:12:14.2711908+01:00","profile":["https://fhir.nhs.uk/STU3/StructureDefinition/CareConnect-GPC-Observation-1"]},"identifier":[{"system":"https://fhir.provider.example/identifier/observation","value":"9f3bc9c5-9f17-4a26-a41f-1d6fcba17785"}],"status":"final","category":[{"coding":[{"system":"http://terminology.hl7.org/CodeSystem/observation-category","code":"vital-signs","display":"Vital Signs"}],"text":"Vital Signs"}],"code":{"coding":[{"system":"http://snomed.info/sct","code":"50373000","display":"Body height measure"}],"text":"Body height measure"},"subject":{"reference":"urn:uuid:db14b872-d792-44f0-aaf0-e161adade2af"},"context":{"reference":"urn:uuid:29c89f25-d174-438e-9052-11fe247200fe"},"effectiveDateTime":"2023-08-08","issued":"2023-08-08T09:17:43.8264542+01:00","performer":[{"reference":"urn:uuid:d690b1da-dcc8-4f56-b2a2-c4fdf2f98f18"}],"valueQuantity":{"value":157.48,"unit":"Centimeter","system":"http://unitsofmeasure.org","code":"cm"}}},{"fullUrl":"urn:uuid:af2776b5-2d7b-44a5-bee6-eb57d8da00b0","resource":{"resourceType":"Observation","id":"af2776b5-2d7b-44a5-bee6-eb57d8da00b0","meta":{"lastUpdated":"2023-08-08T09:12:14.2711908+01:00","profile":["https://fhir.nhs.uk/STU3/StructureDefinition/CareConnect-GPC-Observation-1"]},"identifier":[{"system":"https://fhir.provider.example/identifier/observation","value":"af2776b5-2d7b-44a5-bee6-eb57d8da00b0"}],"status":"final","category":[{"coding":[{"system":"http://terminology.hl7.org/CodeSystem/observation-category","code":"vital-signs","display":"Vital Signs"}],"text":"Vital Signs"}],"code":{"coding":[{"system":"http://snomed.info/sct","code":"27113001","display":"Body weight"}],"text":"Body weight"},"subject":{"reference":"urn:uuid:db14b872-d792-44f0-aaf0-e161adade2af"},"context":{"reference":"urn:uuid:29c89f25-d174-438e-9052-11fe247200fe"},"effectiveDateTime":"2023-08-08","issued":"2023-08-08T09:17:43.8265585+01:00","performer":[{"reference":"urn:uuid:d690b1da-dcc8-4f56-b2a2-c4fdf2f98f18"}],"valueQuantity":{"value":72,"unit":"kilogram","system":"http://unitsofmeasure.org","code":"kg"}}},{"fullUrl":"urn:uuid:8a290b98-ab0b-45c6-bb3f-3db136d3dad6","resource":{"resourceType":"Observation","id":"8a290b98-ab0b-45c6-bb3f-3db136d3dad6","meta":{"lastUpdated":"2023-08-08T09:12:14.2711908+01:00","profile":["https://fhir.nhs.uk/STU3/StructureDefinition/CareConnect-GPC-Observation-1"]},"identifier":[{"system":"https://fhir.provider.example/identifier/observation","value":"8a290b98-ab0b-45c6-bb3f-3db136d3dad6"}],"status":"final","category":[{"coding":[{"system":"http://terminology.hl7.org/CodeSystem/observation-category","code":"vital-signs","display":"Vital Signs"}],"text":"Vital Signs"}],"code":{"coding":[{"system":"http://snomed.info/sct","code":"60621009","display":"Body mass index"}],"text":"Body mass index"},"subject":{"reference":"urn:uuid:db14b872-d792-44f0-aaf0-e161adade2af"},"context":{"reference":"urn:uuid:29c89f25-d174-438e-9052-11fe247200fe"},"effectiveDateTime":"2023-08-08","issued":"2023-08-08T09:17:43.8265697+01:00","performer":[{"reference":"urn:uuid:d690b1da-dcc8-4f56-b2a2-c4fdf2f98f18"}],"valueQuantity":{"value":29.2,"unit":"kilogram per square meter","system":"http://unitsofmeasure.org","code":"kg/m2"}}},{"fullUrl":"urn:uuid:65fb215e-cbe6-42dc-b855-c24865a2e5e0","resource":{"resourceType":"Observation","id":"65fb215e-cbe6-42dc-b855-c24865a2e5e0","meta":{"lastUpdated":"2023-08-08T09:12:14.2711908+01:00","profile":["https://fhir.nhs.uk/STU3/StructureDefinition/CareConnect-GPC-Observation-1"],"tag":[{"system":"https://fhir.nhs.uk/CodeSystem/RecordStandardHeadings","code":"social-context","display":"Social context"}]},"identifier":[{"system":"https://fhir.provider.example/identifier/observation","value":"65fb215e-cbe6-42dc-b855-c24865a2e5e0"}],"status":"final","category":[{"coding":[{"system":"http://terminology.hl7.org/CodeSystem/observation-category","code":"social-history","display":"Social History"}],"text":"Social History"}],"code":{"coding":[{"system":"http://snomed.info/sct","code":"228378005","display":"Smokes drugs in cigarette form"}],"text":"Smokes drugs in cigarette form"},"subject":{"reference":"urn:uuid:db14b872-d792-44f0-aaf0-e161adade2af"},"context":{"reference":"urn:uuid:29c89f25-d174-438e-9052-11fe247200fe"},"effectiveDateTime":"2023-08-08","issued":"2023-08-08T09:17:43.8266646+01:00","performer":[{"reference":"urn:uuid:d690b1da-dcc8-4f56-b2a2-c4fdf2f98f18"}]}},{"fullUrl":"urn:uuid:a5409c58-700b-45d8-bbfa-90fa8f23455c","resource":{"resourceType":"Observation","id":"a5409c58-700b-45d8-bbfa-90fa8f23455c","meta":{"lastUpdated":"2023-08-08T09:12:14.2711908+01:00","profile":["https://fhir.nhs.uk/STU3/StructureDefinition/CareConnect-GPC-Observation-1"],"tag":[{"system":"https://fhir.nhs.uk/CodeSystem/RecordStandardHeadings","code":"pregnancy-status","display":"Pregnancy status"}]},"identifier":[{"system":"https://fhir.provider.example/identifier/observation","value":"a5409c58-700b-45d8-bbfa-90fa8f23455c"}],"status":"final","category":[{"coding":[{"system":"http://terminology.hl7.org/CodeSystem/observation-category","code":"social-history","display":"Social History"}],"text":"Social History"}],"code":{"coding":[{"system":"http://snomed.info/sct","code":"60001007","display":"Not pregnant"}],"text":"Not pregnant"},"subject":{"reference":"urn:uuid:db14b872-d792-44f0-aaf0-e161adade2af"},"context":{"reference":"urn:uuid:29c89f25-d174-438e-9052-11fe247200fe"},"effectiveDateTime":"2023-08-08","issued":"2023-08-08T09:17:43.8266758+01:00","performer":[{"reference":"urn:uuid:d690b1da-dcc8-4f56-b2a2-c4fdf2f98f18"}]}},{"fullUrl":"urn:uuid:132336ac-7320-41f9-a3ac-13fa03c3a235","resource":{"resourceType":"ClinicalImpression","id":"132336ac-7320-41f9-a3ac-13fa03c3a235","meta":{"lastUpdated":"2023-08-08T09:12:14.2711908+01:00","profile":["https://fhir.nhs.uk/STU3/StructureDefinition/CareConnect-GPC-ClinicalImpression-1"],"tag":[{"system":"https://fhir.nhs.uk/CodeSystem/RecordStandardHeadings","code":"clinical-summary","display":"Clinical summary"}]},"identifier":[{"system":"https://fhir.provider.example/identifier/clinical-impression","value":"132336ac-7320-41f9-a3ac-13fa03c3a235"}],"status":"completed","subject":{"reference":"urn:uuid:db14b872-d792-44f0-aaf0-e161adade2af"},"context":{"reference":"urn:uuid:29c89f25-d174-438e-9052-11fe247200fe"},"date":"2023-08-08","assessor":{"reference":"urn:uuid:d690b1da-dcc8-4f56-b2a2-c4fdf2f98f18"},"summary":"Blood pressure high so supply is not made. Referred to GP appointment within 7 days."}},{"fullUrl":"urn:uuid:745f268e-5ed4-4d55-9b7c-595d11063061","resource":{"resourceType":"ClinicalImpression","id":"745f268e-5ed4-4d55-9b7c-595d11063061","meta":{"profile":["https://fhir.nhs.uk/STU3/StructureDefinition/CareConnect-GPC-ClinicalImpression-1"],"tag":[{"system":"https://fhir.nhs.uk/CodeSystem/RecordStandardHeadings","code":"information-and-advice-given","display":"Information and advice given"}]},"identifier":[{"system":"https://fhir.provider.example/identifier/clinical-impression","value":"745f268e-5ed4-4d55-9b7c-595d11063061"}],"status":"completed","subject":{"reference":"urn:uuid:db14b872-d792-44f0-aaf0-e161adade2af"},"context":{"reference":"urn:uuid:29c89f25-d174-438e-9052-11fe247200fe"},"date":"2023-08-08","assessor":{"reference":"urn:uuid:d690b1da-dcc8-4f56-b2a2-c4fdf2f98f18"},"summary":"Blood pressure high so supply is not made. Referred to GP appointment within 7 days."}}]}}]}