{"resourceType":"Bundle","id":"contraception-service--example-1","identifier":{"system":"https://fhir.provider.example/identifier/bundle","value":"contraception-service--example-1"},"type":"message","entry":[{"fullUrl":"urn:uuid:8bb8867d-44e4-4ddb-9e4d-3e3c4b4631ba","resource":{"resourceType":"MessageHeader","id":"8bb8867d-44e4-4ddb-9e4d-3e3c4b4631ba","meta":{"lastUpdated":"2023-08-08T09:12:14.2711908+01:00","profile":["https://fhir.nhs.uk/STU3/StructureDefinition/ITK-MessageHeader-2"]},"extension":[{"url":"https://fhir.nhs.uk/STU3/StructureDefinition/Extension-ITK-MessageHandling-2","extension":[{"url":"BusAckRequested","valueBoolean":true},{"url":"InfAckRequested","valueBoolean":true},{"url":"RecipientType","valueCoding":{"system":"https://fhir.nhs.uk/STU3/CodeSystem/ITK-RecipientType-1","code":"FI","display":"For Information"}},{"url":"MessageDefinition","valueReference":{"reference":"https://fhir.nhs.uk/MessageDefinition"}},{"url":"SenderReference","valueString":"urn:uuid:59efe993-edfb-4b57-984b-e6dc556d9b6a"},{"url":"LocalExtension","valueString":"None"}]}],"event":{"system":"https://fhir.nhs.uk/STU3/CodeSystem/ITK-MessageEvent-2","code":"ITK014M","display":"ITK Update Record"},"sender":{"reference":"urn:uuid:2d0d1754-b061-45be-bc50-074b11242704"},"timestamp":"2023-08-08T09:16:40.9481718+01:00","source":{"endpoint":"SENDER_MESH_MAILBOX_ID"},"focus":[{"reference":"urn:uuid:c8aced86-ef94-4bc9-a467-62b1d5359de3"}]}},{"fullUrl":"urn:uuid:2d0d1754-b061-45be-bc50-074b11242704","resource":{"resourceType":"Organization","id":"2d0d1754-b061-45be-bc50-074b11242704","meta":{"lastUpdated":"2023-08-08T09:12:14.2711908+01:00","profile":["https://fhir.nhs.uk/STU3/StructureDefinition/CareConnect-ITK-Header-Organization-1"]},"identifier":[{"system":"https://fhir.nhs.uk/Id/ods-organization-code","value":"FQW30"}]}},{"fullUrl":"urn:uuid:c8aced86-ef94-4bc9-a467-62b1d5359de3","resource":{"resourceType":"Bundle","id":"c8aced86-ef94-4bc9-a467-62b1d5359de3","meta":{"lastUpdated":"2023-08-08T09:12:14.2711908+01:00","profile":["https://fhir.nhs.uk/STU3/StructureDefinition/ITK-Document-Bundle-1"]},"identifier":{"system":"https://fhir.provider.example/identifier/bundle","value":"c8aced86-ef94-4bc9-a467-62b1d5359de3"},"type":"document","entry":[{"fullUrl":"urn:uuid:8077f86b-3e8c-41df-90d2-a73c54cb460a","resource":{"resourceType":"Composition","id":"8077f86b-3e8c-41df-90d2-a73c54cb460a","meta":{"lastUpdated":"2023-08-08T09:12:14.2711908+01:00","profile":["https://fhir.hl7.org.uk/STU3/StructureDefinition/CareConnect-Composition-1"]},"identifier":{"system":"https://fhir.provider.example/identifier/composition","value":"8077f86b-3e8c-41df-90d2-a73c54cb460a"},"status":"final","type":{"coding":[{"system":"http://snomed.info/sct","code":"1659121000000101","display":"Community Pharmacy Contraception Service"}],"text":"Community Pharmacy Contraception Service"},"subject":{"reference":"urn:uuid:3ec409f6-6dd3-4c7e-b492-180b73f2c808"},"encounter":{"reference":"urn:uuid:59efe993-edfb-4b57-984b-e6dc556d9b6a"},"date":"2023-08-08","author":[{"reference":"urn:uuid:40471edc-4514-4a84-8ca0-abfa5c76604b"}],"title":"The Dispensers - Community Pharmacy Contraception Service","section":[{"entry":[{"reference":"urn:uuid:59efe993-edfb-4b57-984b-e6dc556d9b6a"},{"reference":"urn:uuid:34b98a4b-da91-40af-8d85-1a98340d5a38"},{"reference":"urn:uuid:40471edc-4514-4a84-8ca0-abfa5c76604b"},{"reference":"urn:uuid:aaeba6df-72b8-4723-8525-db2c557cc9c0"},{"reference":"urn:uuid:3ec409f6-6dd3-4c7e-b492-180b73f2c808"},{"reference":"urn:uuid:71d0ddac-874c-40f6-9f3e-113f1659ce24"},{"reference":"urn:uuid:8b581579-a6c5-4378-9dee-6d4b4567d2b3"},{"reference":"urn:uuid:551fb3b3-a594-4213-a5a2-4cc4e32630a5"},{"reference":"urn:uuid:376ace66-7d86-4b67-a1d4-5a27c0e5f1e4"},{"reference":"urn:uuid:cdd6e748-70ea-4be6-8d23-cf84fb66fbcb"},{"reference":"urn:uuid:9e1bbf34-0efb-482b-81ca-b4b54b5323a2"},{"reference":"urn:uuid:dbf22ebe-4fb0-4bf7-949f-1da86e56f367"},{"reference":"urn:uuid:32d0f223-2049-4ccc-8082-6606420df62c"}]}]}},{"fullUrl":"urn:uuid:59efe993-edfb-4b57-984b-e6dc556d9b6a","resource":{"resourceType":"Encounter","id":"59efe993-edfb-4b57-984b-e6dc556d9b6a","meta":{"lastUpdated":"2023-08-08T09:12:14.2711908+01:00","profile":["https://fhir.nhs.uk/STU3/StructureDefinition/CareConnect-GPC-Encounter-1"]},"extension":[{"url":"https://fhir.hl7.org.uk/STU3/StructureDefinition/Extension-CareConnect-OutcomeOfAttendance-1","valueCodeableConcept":{"coding":[{"system":"https://fhir.hl7.org.uk/STU3/CodeSystem/CareConnect-OutcomeOfAttendance-1","code":"1"}],"text":"Discharged from Consultant's care (last attendance)"}}],"identifier":[{"system":"https://fhir.provider.example/identifier/encounter","value":"59efe993-edfb-4b57-984b-e6dc556d9b6a"}],"status":"finished","type":[{"coding":[{"system":"http://snomed.info/sct","code":"307778003","display":"Seen in primary care establishment"}],"text":"Seen in primary care establishment"}],"subject":{"reference":"urn:uuid:3ec409f6-6dd3-4c7e-b492-180b73f2c808"},"participant":[{"individual":{"reference":"urn:uuid:40471edc-4514-4a84-8ca0-abfa5c76604b"}}],"period":{"start":"2023-08-08"},"reason":[{"coding":[{"system":"http://snomed.info/sct","code":"1659121000000101","display":"Community Pharmacy Contraception Service"}],"text":"Community Pharmacy Contraception Service"}],"serviceProvider":{"reference":"urn:uuid:34b98a4b-da91-40af-8d85-1a98340d5a38"}}},{"fullUrl":"urn:uuid:34b98a4b-da91-40af-8d85-1a98340d5a38","resource":{"resourceType":"Organization","id":"34b98a4b-da91-40af-8d85-1a98340d5a38","meta":{"lastUpdated":"2023-08-08T09:12:14.2711908+01:00","profile":["https://fhir.nhs.uk/STU3/StructureDefinition/CareConnect-GPC-Organization-1"]},"identifier":[{"system":"https://fhir.nhs.uk/Id/ods-organization-code","value":"A(*)"}],"name":"The Dispensers"}},{"fullUrl":"urn:uuid:40471edc-4514-4a84-8ca0-abfa5c76604b","resource":{"resourceType":"Practitioner","id":"40471edc-4514-4a84-8ca0-abfa5c76604b","meta":{"lastUpdated":"2023-08-08T09:12:14.2711908+01:00","profile":["https://fhir.nhs.uk/STU3/StructureDefinition/CareConnect-GPC-Practitioner-1"]},"identifier":[{"system":"https://fhir.provider.example/identifier/staff","value":"40471edc-4514-4a84-8ca0-abfa5c76604b"},{"system":"https://fhir.hl7.org.uk/Id/gphc-number","value":"NNNNNNN"}],"name":[{"family":"Kai-Shun","given":["Medi"],"prefix":["Dr"]}]}},{"fullUrl":"urn:uuid:aaeba6df-72b8-4723-8525-db2c557cc9c0","resource":{"resourceType":"PractitionerRole","id":"aaeba6df-72b8-4723-8525-db2c557cc9c0","meta":{"lastUpdated":"2023-08-08T09:12:14.2711908+01:00","profile":["https://fhir.nhs.uk/STU3/StructureDefinition/CareConnect-GPC-PractitionerRole-1"]},"practitioner":{"reference":"urn:uuid:40471edc-4514-4a84-8ca0-abfa5c76604b"},"organization":{"reference":"urn:uuid:34b98a4b-da91-40af-8d85-1a98340d5a38"},"code":[{"coding":[{"system":"https://fhir.nhs.uk/STU3/CodeSystem/CareConnect-SDSJobRoleName-1","code":"R1290","display":"Pharmacist"}],"text":"Pharmacist"}]}},{"fullUrl":"urn:uuid:3ec409f6-6dd3-4c7e-b492-180b73f2c808","resource":{"resourceType":"Patient","id":"3ec409f6-6dd3-4c7e-b492-180b73f2c808","meta":{"lastUpdated":"2023-08-08T09:12:14.2711908+01:00","profile":["https://fhir.nhs.uk/STU3/StructureDefinition/CareConnect-GPC-Patient-1"]},"identifier":[{"extension":[{"url":"https://fhir.nhs.uk/STU3/StructureDefinition/Extension-CareConnect-GPC-NHSNumberVerificationStatus-1","valueCodeableConcept":{"coding":[{"system":"https://fhir.nhs.uk/STU3/CodeSystem/CareConnect-NHSNumberVerificationStatus-1","code":"01","display":"Number present and verified"}],"text":"Number present and verified"}}],"system":"https://fhir.nhs.uk/Id/nhs-number","value":"4857773456"},{"system":"https://fhir.provider.example/identifier/patient","value":"3ec409f6-6dd3-4c7e-b492-180b73f2c808"}],"name":[{"use":"official","family":"MOWERS","given":["Lorna"]}],"gender":"female","birthDate":"1971-08-08","address":[{"postalCode":"LWN 1"}]}},{"fullUrl":"urn:uuid:71d0ddac-874c-40f6-9f3e-113f1659ce24","resource":{"resourceType":"Observation","id":"71d0ddac-874c-40f6-9f3e-113f1659ce24","meta":{"lastUpdated":"2023-08-08T09:12:14.2711908+01:00","profile":["https://fhir.nhs.uk/STU3/StructureDefinition/CareConnect-GPC-Observation-1"]},"identifier":[{"system":"https://fhir.provider.example/identifier/observation","value":"71d0ddac-874c-40f6-9f3e-113f1659ce24"}],"status":"final","category":[{"coding":[{"system":"http://terminology.hl7.org/CodeSystem/observation-category","code":"vital-signs","display":"Vital Signs"}],"text":"Vital Signs"}],"code":{"coding":[{"system":"http://snomed.info/sct","code":"75367002","display":"Blood pressure"}],"text":"Average blood pressure"},"subject":{"reference":"urn:uuid:3ec409f6-6dd3-4c7e-b492-180b73f2c808"},"context":{"reference":"urn:uuid:59efe993-edfb-4b57-984b-e6dc556d9b6a"},"effectiveDateTime":"2023-08-08","issued":"2023-08-08T09:16:40.9843158+01:00","performer":[{"reference":"urn:uuid:40471edc-4514-4a84-8ca0-abfa5c76604b"}],"bodySite":{"coding":[{"system":"http://snomed.info/sct","code":"368208006","display":"Left upper arm structure"}],"text":"Left upper arm structure"},"component":[{"code":{"coding":[{"system":"http://snomed.info/sct","code":"72313002","display":"Systolic arterial pressure"}],"text":"Systolic arterial pressure"},"valueQuantity":{"value":120,"unit":"millimeter of mercury","system":"http://unitsofmeasure.org","code":"mm[Hg]"}},{"code":{"coding":[{"system":"http://snomed.info/sct","code":"1091811000000102","display":"Diastolic arterial pressure"}],"text":"Diastolic arterial pressure"},"valueQuantity":{"value":78,"unit":"millimeter of mercury","system":"http://unitsofmeasure.org","code":"mm[Hg]"}}]}},{"fullUrl":"urn:uuid:8b581579-a6c5-4378-9dee-6d4b4567d2b3","resource":{"resourceType":"Observation","id":"8b581579-a6c5-4378-9dee-6d4b4567d2b3","meta":{"lastUpdated":"2023-08-08T09:12:14.2711908+01:00","profile":["https://fhir.nhs.uk/STU3/StructureDefinition/CareConnect-GPC-Observation-1"]},"identifier":[{"system":"https://fhir.provider.example/identifier/observation","value":"8b581579-a6c5-4378-9dee-6d4b4567d2b3"}],"status":"final","category":[{"coding":[{"system":"http://terminology.hl7.org/CodeSystem/observation-category","code":"vital-signs","display":"Vital Signs"}],"text":"Vital Signs"}],"code":{"coding":[{"system":"http://snomed.info/sct","code":"50373000","display":"Body height measure"}],"text":"Body height measure"},"subject":{"reference":"urn:uuid:3ec409f6-6dd3-4c7e-b492-180b73f2c808"},"context":{"reference":"urn:uuid:59efe993-edfb-4b57-984b-e6dc556d9b6a"},"effectiveDateTime":"2023-08-08","issued":"2023-08-08T09:16:40.9866285+01:00","performer":[{"reference":"urn:uuid:40471edc-4514-4a84-8ca0-abfa5c76604b"}],"valueQuantity":{"value":162.56,"unit":"centimeter","system":"http://unitsofmeasure.org","code":"cm"}}},{"fullUrl":"urn:uuid:551fb3b3-a594-4213-a5a2-4cc4e32630a5","resource":{"resourceType":"Observation","id":"551fb3b3-a594-4213-a5a2-4cc4e32630a5","meta":{"lastUpdated":"2023-08-08T09:12:14.2711908+01:00","profile":["https://fhir.nhs.uk/STU3/StructureDefinition/CareConnect-GPC-Observation-1"]},"identifier":[{"system":"https://fhir.provider.example/identifier/observation","value":"551fb3b3-a594-4213-a5a2-4cc4e32630a5"}],"status":"final","category":[{"coding":[{"system":"http://terminology.hl7.org/CodeSystem/observation-category","code":"vital-signs","display":"Vital Signs"}],"text":"Vital Signs"}],"code":{"coding":[{"system":"http://snomed.info/sct","code":"27113001","display":"Body weight"}],"text":"Body weight"},"subject":{"reference":"urn:uuid:3ec409f6-6dd3-4c7e-b492-180b73f2c808"},"context":{"reference":"urn:uuid:59efe993-edfb-4b57-984b-e6dc556d9b6a"},"effectiveDateTime":"2023-08-08","issued":"2023-08-08T09:16:40.98672+01:00","performer":[{"reference":"urn:uuid:40471edc-4514-4a84-8ca0-abfa5c76604b"}],"valueQuantity":{"value":64,"unit":"kilogram","system":"http://unitsofmeasure.org","code":"kg"}}},{"fullUrl":"urn:uuid:376ace66-7d86-4b67-a1d4-5a27c0e5f1e4","resource":{"resourceType":"Observation","id":"376ace66-7d86-4b67-a1d4-5a27c0e5f1e4","meta":{"lastUpdated":"2023-08-08T09:12:14.2711908+01:00","profile":["https://fhir.nhs.uk/STU3/StructureDefinition/CareConnect-GPC-Observation-1"]},"identifier":[{"system":"https://fhir.provider.example/identifier/observation","value":"376ace66-7d86-4b67-a1d4-5a27c0e5f1e4"}],"status":"final","category":[{"coding":[{"system":"http://terminology.hl7.org/CodeSystem/observation-category","code":"vital-signs","display":"Vital Signs"}],"text":"Vital Signs"}],"code":{"coding":[{"system":"http://snomed.info/sct","code":"60621009","display":"Body mass index"}],"text":"Body mass index"},"subject":{"reference":"urn:uuid:3ec409f6-6dd3-4c7e-b492-180b73f2c808"},"context":{"reference":"urn:uuid:59efe993-edfb-4b57-984b-e6dc556d9b6a"},"effectiveDateTime":"2023-08-08","issued":"2023-08-08T09:16:40.9867255+01:00","performer":[{"reference":"urn:uuid:40471edc-4514-4a84-8ca0-abfa5c76604b"}],"valueQuantity":{"value":24,"unit":"kilogram per square meter","system":"http://unitsofmeasure.org","code":"kg/m2"}}},{"fullUrl":"urn:uuid:cdd6e748-70ea-4be6-8d23-cf84fb66fbcb","resource":{"resourceType":"Observation","id":"cdd6e748-70ea-4be6-8d23-cf84fb66fbcb","meta":{"lastUpdated":"2023-08-08T09:12:14.2711908+01:00","profile":["https://fhir.nhs.uk/STU3/StructureDefinition/CareConnect-GPC-Observation-1"],"tag":[{"system":"https://fhir.nhs.uk/CodeSystem/RecordStandardHeadings","code":"social-context","display":"Social context"}]},"identifier":[{"system":"https://fhir.provider.example/identifier/observation","value":"cdd6e748-70ea-4be6-8d23-cf84fb66fbcb"}],"status":"final","category":[{"coding":[{"system":"http://terminology.hl7.org/CodeSystem/observation-category","code":"social-history","display":"Social History"}],"text":"Social History"}],"code":{"coding":[{"system":"http://snomed.info/sct","code":"8392000","display":"Non-smoker"}],"text":"Non-smoker"},"subject":{"reference":"urn:uuid:3ec409f6-6dd3-4c7e-b492-180b73f2c808"},"context":{"reference":"urn:uuid:59efe993-edfb-4b57-984b-e6dc556d9b6a"},"effectiveDateTime":"2023-08-08","issued":"2023-08-08T09:16:40.9868281+01:00","performer":[{"reference":"urn:uuid:40471edc-4514-4a84-8ca0-abfa5c76604b"}]}},{"fullUrl":"urn:uuid:9e1bbf34-0efb-482b-81ca-b4b54b5323a2","resource":{"resourceType":"Observation","id":"9e1bbf34-0efb-482b-81ca-b4b54b5323a2","meta":{"lastUpdated":"2023-08-08T09:12:14.2711908+01:00","profile":["https://fhir.nhs.uk/STU3/StructureDefinition/CareConnect-GPC-Observation-1"],"tag":[{"system":"https://fhir.nhs.uk/CodeSystem/RecordStandardHeadings","code":"pregnancy-status","display":"Pregnancy status"}]},"identifier":[{"system":"https://fhir.provider.example/identifier/observation","value":"9e1bbf34-0efb-482b-81ca-b4b54b5323a2"}],"status":"final","category":[{"coding":[{"system":"http://terminology.hl7.org/CodeSystem/observation-category","code":"social-history","display":"Social History"}],"text":"Social History"}],"code":{"coding":[{"system":"http://snomed.info/sct","code":"60001007","display":"Not pregnant"}],"text":"Not pregnant"},"subject":{"reference":"urn:uuid:3ec409f6-6dd3-4c7e-b492-180b73f2c808"},"context":{"reference":"urn:uuid:59efe993-edfb-4b57-984b-e6dc556d9b6a"},"effectiveDateTime":"2023-08-08","issued":"2023-08-08T09:16:40.9868328+01:00","performer":[{"reference":"urn:uuid:40471edc-4514-4a84-8ca0-abfa5c76604b"}]}},{"fullUrl":"urn:uuid:dbf22ebe-4fb0-4bf7-949f-1da86e56f367","resource":{"resourceType":"MedicationDispense","id":"dbf22ebe-4fb0-4bf7-949f-1da86e56f367","meta":{"lastUpdated":"2023-08-08T09:12:14.2711908+01:00","profile":["https://fhir.nhs.uk/STU3/StructureDefinition/CareConnect-GPC-MedicationDispense-1"]},"identifier":[{"system":"https://fhir.provider.example/identifier/medication-dispense","value":"dbf22ebe-4fb0-4bf7-949f-1da86e56f367"}],"status":"completed","category":{"coding":[{"system":"http://hl7.org/fhir/medication-dispense-category","code":"community","display":"Community"}],"text":"Community"},"medicationCodeableConcept":{"coding":[{"system":"https://dmd.nhs.uk","code":"17346711000001106","display":"Rigevidon tablets (Gedeon Richter (UK) Ltd)"}],"text":"Rigevidon tablets (Gedeon Richter (UK) Ltd)"},"subject":{"reference":"urn:uuid:3ec409f6-6dd3-4c7e-b492-180b73f2c808"},"context":{"reference":"urn:uuid:59efe993-edfb-4b57-984b-e6dc556d9b6a"},"performer":[{"actor":{"reference":"urn:uuid:40471edc-4514-4a84-8ca0-abfa5c76604b"}}],"type":{"coding":[{"system":"https://fhir.hl7.org.uk/STU3/CodeSystem/CareConnect-MedicationSupplyType-1","code":"prescription-dispensing","display":"Prescription dispensing"}],"text":"Prescription dispensing"},"quantity":{"value":252,"unit":"Tablet","system":"http://snomed.info/sct","code":"428673006"},"daysSupply":{"value":252,"unit":"day","system":"http://unitsofmeasure.org","code":"d"},"whenPrepared":"2023-08-08","whenHandedOver":"2023-08-08","dosageInstruction":[{"text":"One tablet is to be taken daily for 21 consecutive days starting day 1 of menstrual cycle. Do not take the tablets between day 22 to day 28.","patientInstruction":"One tablet is to be taken daily for 21 consecutive days starting day 1 of menstrual cycle. Do not take the tablets between day 22 to day 28.","timing":{"repeat":{"frequency":1,"period":1,"periodUnit":"d"}},"route":{"coding":[{"system":"http://snomed.info/sct","code":"26643006","display":"Oral route"}],"text":"Oral route"},"maxDosePerPeriod":{"numerator":{"value":21,"unit":"Tablet","system":"http://snomed.info/sct","code":"428673006"},"denominator":{"value":28,"unit":"day","system":"http://unitsofmeasure.org","code":"d"}}}]}},{"fullUrl":"urn:uuid:32d0f223-2049-4ccc-8082-6606420df62c","resource":{"resourceType":"ClinicalImpression","id":"32d0f223-2049-4ccc-8082-6606420df62c","meta":{"profile":["https://fhir.nhs.uk/STU3/StructureDefinition/CareConnect-GPC-ClinicalImpression-1"],"tag":[{"system":"https://fhir.nhs.uk/CodeSystem/RecordStandardHeadings","code":"clinical-summary","display":"Clinical summary"}]},"identifier":[{"system":"https://fhir.provider.example/identifier/clinical-impression","value":"32d0f223-2049-4ccc-8082-6606420df62c"}],"status":"completed","subject":{"reference":"urn:uuid:3ec409f6-6dd3-4c7e-b492-180b73f2c808"},"context":{"reference":"urn:uuid:59efe993-edfb-4b57-984b-e6dc556d9b6a"},"date":"2023-08-08","assessor":{"reference":"urn:uuid:40471edc-4514-4a84-8ca0-abfa5c76604b"},"summary":"The patient has been using oral contraception and it works well. Walked in the pharmacy for ongoing supply."}}]}}]}