{"resourceType":"Bundle","meta":{"profile":["https://fhir.nhs.uk/STU3/StructureDefinition/ITK-Message-Bundle-1"]},"identifier":{"system":"supplier/identifier/namespace","value":"cbfc2916-af51-41eb-a73a-7a6eae1cf537"},"type":"message","entry":[{"fullUrl":"3da13692-50da-4709-b95c-87df0d64b7ae","resource":{"resourceType":"Organization","meta":{"profile":["https://fhir.nhs.uk/STU3/StructureDefinition/CareConnect-GPC-Organization-1"]},"identifier":[{"system":"https://fhir.nhs.uk/Id/ods-organization-code","value":"FQW30"}],"name":"ANDOVER PHARMACY (FQW30)"}},{"fullUrl":"e1a1689c-2f65-467b-ab48-7714813c09cc","resource":{"resourceType":"MessageHeader","meta":{"profile":["https://fhir.nhs.uk/STU3/StructureDefinition/ITK-MessageHeader-2"]},"extension":[{"url":"https://fhir.nhs.uk/STU3/StructureDefinition/Extension-ITK-MessageHandling-2","extension":[{"url":"BusAckRequested","valueBoolean":true},{"url":"InfAckRequested","valueBoolean":true},{"url":"RecipientType","valueCoding":{"system":"https://fhir.nhs.uk/STU3/CodeSystem/ITK-RecipientType-1","code":"FI","display":"For Information"}},{"url":"SenderReference","valueString":"3a5192c2-6156-4624-a212-0a8f65c27ca2"},{"url":"LocalExtension","valueString":"None"}]}],"event":{"system":"https://fhir.nhs.uk/STU3/CodeSystem/ITK-MessageEvent-2","code":"ITK???","display":"TODO - CONFIRM CODE"},"sender":{"reference":"3da13692-50da-4709-b95c-87df0d64b7ae"},"timestamp":"2023-07-06T17:41:28.7357597+01:00","source":{"endpoint":"SENDER_MESH_MAILBOX_ID"},"focus":[{"reference":"e7e655be-32a8-4625-af66-f287eef3d285"}]}},{"fullUrl":"e7e655be-32a8-4625-af66-f287eef3d285","resource":{"resourceType":"Bundle","meta":{"profile":["https://fhir.nhs.uk/STU3/StructureDefinition/ITK-Document-Bundle-1"]},"identifier":{"system":"provider/gpc/update-record/id","value":"e7e655be-32a8-4625-af66-f287eef3d285"},"type":"document","entry":[{"fullUrl":"7982b57f-32ed-442e-b865-f1ee0a1abf70","resource":{"resourceType":"Composition","id":"7982b57f-32ed-442e-b865-f1ee0a1abf70","meta":{"profile":["https://fhir.hl7.org.uk/STU3/StructureDefinition/CareConnect-GPC-Composition-1"],"security":[{"system":"http://terminology.hl7.org/CodeSystem/v3-ActCode","code":"NOPAT","display":"no disclosure to patient, family or caregivers without attending provider's authorization"}]},"extension":[{"url":"https://fhir.hl7.org.uk/STU3/StructureDefinition/Extension-CareConnect-CareSettingType-1","valueCodeableConcept":{"coding":[{"system":"http://snomed.info/sct","code":"310080006"}],"text":"Pharmacy service (qualifier value)"}}],"status":"final","type":{"coding":[{"system":"http://snomed.info/sct","code":"1321521000000101"}],"text":"Supply of medication for minor illness by community pharmacy (record artifact)"},"subject":{"reference":"9af729a6-55cf-4b33-80e1-f8b95a4434dc"},"encounter":{"reference":"3a5192c2-6156-4624-a212-0a8f65c27ca2"},"date":"2023-07-06","author":[{"reference":"69444bc0-13b2-4fc3-b5df-e34369af7668"}],"title":"ANDOVER PHARMACY Community Pharmacist Minor Illness Referral Consultation Service","section":[{"entry":[{"reference":"06e5d2e0-e4a4-45dc-bf0b-2dd20216aefb"}]},{"entry":[{"reference":"3a5192c2-6156-4624-a212-0a8f65c27ca2"}]},{"entry":[{"reference":"d3b26e77-3daa-499c-a801-67c34a254f81"}]},{"entry":[{"reference":"1034d635-70bc-4b5b-8634-c548a45e71c0"}]},{"entry":[{"reference":"c53ef1b5-189c-4006-82b6-2af6d43e21b3"}]},{"entry":[{"reference":"d3811ae1-1323-49aa-99ec-a1573a172527"}]},{"entry":[{"reference":"9af729a6-55cf-4b33-80e1-f8b95a4434dc"}]},{"entry":[{"reference":"99d25ff5-9f30-45c2-bb6e-394f5797552a"}]},{"entry":[{"reference":"094cfdf1-b013-4cd1-a54f-d5a00fe43c39"}]},{"entry":[{"reference":"3da13692-50da-4709-b95c-87df0d64b7ae"}]},{"entry":[{"reference":"69444bc0-13b2-4fc3-b5df-e34369af7668"}]}]}}]}},{"fullUrl":"06e5d2e0-e4a4-45dc-bf0b-2dd20216aefb","resource":{"resourceType":"ReferralRequest","meta":{"profile":["https://fhir.nhs.uk/STU3/StructureDefinition/CareConnect-GPC-ReferralRequest-1"]},"identifier":[{"system":"supplier/identifier/namespace","value":"06e5d2e0-e4a4-45dc-bf0b-2dd20216aefb"}],"status":"unknown","intent":"order","type":{"coding":[{"system":"http://snomed.info/sct","code":"879591000000102"}]},"subject":{"identifier":{"extension":[{"url":"https://fhir.hl7.org.uk/STU3/StructureDefinition/Extension-CareConnect-NHSNumberVerificationStatus-1","valueCodeableConcept":{"coding":[{"system":"https://fhir.hl7.org.uk/STU3/CodeSystem/CareConnect-NHSNumberVerificationStatus-1","code":"01","display":"Number present and verified"}],"text":"Number present and verified"}}],"system":"https://fhir.nhs.uk/Id/nhs-number","value":"4857773456"}},"context":{"reference":"3a5192c2-6156-4624-a212-0a8f65c27ca2"},"authoredOn":"2023-07-05","requester":{"agent":{"reference":"094cfdf1-b013-4cd1-a54f-d5a00fe43c39"},"onBehalfOf":{"reference":"99d25ff5-9f30-45c2-bb6e-394f5797552a"}},"recipient":[{"identifier":{"system":"https://fhir.nhs.uk/Id/ods-organization-code","value":"FQW30"}}],"note":[{"text":"Justin called NHS 111 due to complaint of sore eye - swollen, watering, feels like something in the eye. Suspected conjunctivitis - referred to Community Pharmacist"}]}},{"fullUrl":"3a5192c2-6156-4624-a212-0a8f65c27ca2","resource":{"resourceType":"Encounter","meta":{"profile":["https://fhir.nhs.uk/STU3/StructureDefinition/CareConnect-GPC-Encounter-1"]},"identifier":[{"system":"supplier/identifier/namespace","value":"3a5192c2-6156-4624-a212-0a8f65c27ca2"}],"status":"finished","type":[{"coding":[{"system":"http://snomed.info/sct","code":"325941000000100","display":"Face to face assessment encounter type (record artifact)"}],"text":"Face to face assessment encounter type (record artifact)"}],"subject":{"identifier":{"extension":[{"url":"https://fhir.hl7.org.uk/STU3/StructureDefinition/Extension-CareConnect-NHSNumberVerificationStatus-1","valueCodeableConcept":{"coding":[{"system":"https://fhir.hl7.org.uk/STU3/CodeSystem/CareConnect-NHSNumberVerificationStatus-1","code":"01","display":"Number present and verified"}],"text":"Number present and verified"}}],"system":"https://fhir.nhs.uk/Id/nhs-number","value":"4857773456"}},"participant":[{"type":[{"coding":[{"system":"https://fhir.nhs.uk/STU3/ValueSet/GPConnect-ParticipantType-1","code":"REC","display":"Recorder"}],"text":"Recorder"}],"individual":{"reference":"d3b26e77-3daa-499c-a801-67c34a254f81"}}],"serviceProvider":{"reference":"3da13692-50da-4709-b95c-87df0d64b7ae"}}},{"fullUrl":"d3b26e77-3daa-499c-a801-67c34a254f81","resource":{"resourceType":"Practitioner","meta":{"profile":["https://fhir.nhs.uk/STU3/StructureDefinition/CareConnect-GPC-Practitioner-1"]},"identifier":[{"system":"https://fhir.hl7.org.uk/Id/gphc-number","value":"2145879"}],"active":true,"name":[{"family":"Spencer","given":["Di"],"prefix":["Mrs"]}]}},{"fullUrl":"1034d635-70bc-4b5b-8634-c548a45e71c0","resource":{"resourceType":"Condition","id":"1034d635-70bc-4b5b-8634-c548a45e71c0","meta":{"profile":["https://fhir.nhs.uk/STU3/StructureDefinition/CareConnect-GPC-Condition-1"]},"identifier":[{"system":"provider/gpc/update-record/id","value":"1034d635-70bc-4b5b-8634-c548a45e71c0"}],"clinicalStatus":"resolved","verificationStatus":"confirmed","category":[{"coding":[{"system":"https://fhir.nhs.uk/STU3/StructureDefinition/GPConnect-StructuredRecord-Bundle-1","code":"presenting-complaint","display":"Presenting complaint"}],"text":"Presenting complaint"}],"severity":{"coding":[{"system":"http://snomed.info/sct","code":"255604002","display":"Mild (qualifier value)"}],"text":"Mild (qualifier value)"},"code":{"coding":[{"system":"http://snomed.info/sct","code":"9826008","display":"Conjunctivitis (disorder)"}],"text":"Conjunctivitis (disorder)"},"subject":{"identifier":{"extension":[{"url":"https://fhir.hl7.org.uk/STU3/StructureDefinition/Extension-CareConnect-NHSNumberVerificationStatus-1","valueCodeableConcept":{"coding":[{"system":"https://fhir.hl7.org.uk/STU3/CodeSystem/CareConnect-NHSNumberVerificationStatus-1","code":"01","display":"Number present and verified"}],"text":"Number present and verified"}}],"system":"https://fhir.nhs.uk/Id/nhs-number","value":"4857773456"}},"assertedDate":"2023-07-06","asserter":{"reference":"d3b26e77-3daa-499c-a801-67c34a254f81"}}},{"fullUrl":"c53ef1b5-189c-4006-82b6-2af6d43e21b3","resource":{"resourceType":"MedicationDispense","identifier":[{"system":"provider/gpc/update-record/id","value":"c53ef1b5-189c-4006-82b6-2af6d43e21b3"}],"status":"completed","medicationCodeableConcept":{"coding":[{"system":"https://dmd.nhs.uk","code":"271611000001100"}],"text":"Chloramphenicol 0.5% eye drops (A A H Pharmaceuticals Ltd)"},"subject":{"identifier":{"extension":[{"url":"https://fhir.hl7.org.uk/STU3/StructureDefinition/Extension-CareConnect-NHSNumberVerificationStatus-1","valueCodeableConcept":{"coding":[{"system":"https://fhir.hl7.org.uk/STU3/CodeSystem/CareConnect-NHSNumberVerificationStatus-1","code":"01","display":"Number present and verified"}],"text":"Number present and verified"}}],"system":"https://fhir.nhs.uk/Id/nhs-number","value":"4857773456"}},"performer":[{"actor":{"identifier":{"system":"https://fhir.hl7.org.uk/Id/gphc-number","value":"2145879"}},"onBehalfOf":{"identifier":{"system":"https://fhir.nhs.uk/Id/ods-organization-code","value":"FQW30"}}}],"type":{"coding":[{"system":"https://fhir.hl7.org.uk/CodeSystem/UKCore-MedicationSupplyType","code":"minor-ailments-scheme","display":"Minor ailments scheme"}],"text":"Minor ailments scheme"},"daysSupply":{"value":7,"unit":"day","system":"http://unitsofmeasure.org","code":"d"},"whenPrepared":"2023-07-06","whenHandedOver":"2023-07-06","dosageInstruction":[{"sequence":1,"text":"One drop into the affected eye every 2 hours during waking hours for the first 2 days","timing":{"repeat":{"boundsDuration":{"value":2,"unit":"day","system":"http://unitsofmeasure.org","code":"d"},"frequency":1,"period":2,"periodUnit":"h","when":["WAKE"]}},"doseQuantity":{"value":1,"unit":"Drop - unit of product usage (qualifier value)","system":"http://snomed.info/sct","code":"404218003"}},{"sequence":2,"text":"Then every four hours for the next three days","timing":{"repeat":{"boundsDuration":{"value":3,"unit":"day","system":"http://unitsofmeasure.org","code":"d"},"frequency":1,"period":4,"periodUnit":"h","when":["WAKE"]}},"doseQuantity":{"value":1,"unit":"Drop - unit of product usage (qualifier value)","system":"http://snomed.info/sct","code":"404218003"}}]}},{"fullUrl":"d3811ae1-1323-49aa-99ec-a1573a172527","resource":{"resourceType":"Observation","meta":{"profile":["https://fhir.nhs.uk/STU3/StructureDefinition/CareConnect-GPC-Observation-1"]},"identifier":[{"system":"provider/gpc/update-record/id","value":"d3811ae1-1323-49aa-99ec-a1573a172527"}],"status":"final","code":{"coding":[{"system":"http://snomed.info/sct","code":"887181000000106","display":"Clinical summary (record artifact)"}],"text":"Clinical summary (record artifact)"},"subject":{"identifier":{"extension":[{"url":"https://fhir.hl7.org.uk/STU3/StructureDefinition/Extension-CareConnect-NHSNumberVerificationStatus-1","valueCodeableConcept":{"coding":[{"system":"https://fhir.hl7.org.uk/STU3/CodeSystem/CareConnect-NHSNumberVerificationStatus-1","code":"01","display":"Number present and verified"}],"text":"Number present and verified"}}],"system":"https://fhir.nhs.uk/Id/nhs-number","value":"4857773456"}},"context":{"reference":"3a5192c2-6156-4624-a212-0a8f65c27ca2"},"effectiveDateTime":"2023-07-06","issued":"2023-07-06T17:41:28.7929182+01:00","performer":[{"identifier":{"system":"https://fhir.nhs.uk/Id/ods-organization-code","value":"FQW30"}},{"identifier":{"system":"https://fhir.hl7.org.uk/Id/gphc-number","value":"2145879"}}],"valueString":"Referred from NHS 111 - patient complained or sore eyes. Eyes visibly red, swollen and watery. Prescribed Chloramphenicol 0.5% eye drops"}},{"fullUrl":"9af729a6-55cf-4b33-80e1-f8b95a4434dc","resource":{"resourceType":"Patient","id":"9af729a6-55cf-4b33-80e1-f8b95a4434dc","identifier":[{"extension":[{"url":"https://fhir.hl7.org.uk/STU3/StructureDefinition/Extension-CareConnect-NHSNumberVerificationStatus-1","valueCodeableConcept":{"coding":[{"system":"https://fhir.hl7.org.uk/STU3/CodeSystem/CareConnect-NHSNumberVerificationStatus-1","code":"01","display":"Number present and verified"}],"text":"Number present and verified"}}],"system":"https://fhir.nhs.uk/Id/nhs-number","value":"4857773456"}],"name":[{"use":"official","family":"THYME","given":["Justin"],"prefix":["MR"]}],"birthDate":"2009-07-06","address":[{"postalCode":"JIT"}]}},{"fullUrl":"99d25ff5-9f30-45c2-bb6e-394f5797552a","resource":{"resourceType":"Organization","id":"99d25ff5-9f30-45c2-bb6e-394f5797552a","meta":{"profile":["https://fhir.nhs.uk/STU3/StructureDefinition/CareConnect-GPC-Organization-1"]},"identifier":[{"system":"https://fhir.nhs.uk/Id/ods-organization-code","value":"R8Y4T"}],"name":"NHS 111 ONLINE (R8Y4T)","address":[{"line":["7-8 WELLINGTON PLACE"],"city":"LEEDS","postalCode":"LS1 4AP"}]}},{"fullUrl":"094cfdf1-b013-4cd1-a54f-d5a00fe43c39","resource":{"resourceType":"Practitioner","id":"094cfdf1-b013-4cd1-a54f-d5a00fe43c39","meta":{"profile":["https://fhir.nhs.uk/STU3/StructureDefinition/CareConnect-GPC-Practitioner-1"]},"name":[{"use":"official","family":"TEAK","given":["Anne"],"prefix":["MRS"]}]}}]}