{"resourceType":"Bundle","id":"mim-example","identifier":{"system":"https://tools.ietf.org/html/rfc4122","value":"f28682c0-50d2-472a-a8f0-477f7ac1b63f"},"type":"message","entry":[{"fullUrl":"urn:uuid:48b07891-1d81-7b99-3bd2-23e242d2dd44","resource":{"resourceType":"MessageHeader","id":"48b07891-1d81-7b99-3bd2-23e242d2dd44","eventCoding":{"system":"https://fhir.nhs.uk/CodeSystem/message-event","code":"prescription-order","display":"Prescription Order"},"sender":{"reference":"urn:uuid:6dc16793-61c2-44b8-8d0f-f872101c016e","display":"Dr Smith"},"source":{"name":"PAS","endpoint":"https://fhir.mynhstrust.nhs.uk/R4"},"focus":[{"reference":"urn:uuid:1e34ee53-397a-2e70-e97c-67b1bd95014d"},{"reference":"urn:uuid:791c9a65-5c6a-308b-d700-32d247badb87"},{"reference":"urn:uuid:c6750caa-3ca9-4f29-a282-6ee1aa5d7d4c"},{"reference":"urn:uuid:0f314b9f-5233-42e6-aed3-c436bb9ac8ab"},{"reference":"urn:uuid:6dc16793-61c2-44b8-8d0f-f872101c016e"}]}},{"fullUrl":"urn:uuid:1e34ee53-397a-2e70-e97c-67b1bd95014d","resource":{"resourceType":"MedicationRequest","id":"1e34ee53-397a-2e70-e97c-67b1bd95014d","extension":[{"url":"https://fhir.nhs.uk/StructureDefinition/Extension-DM-PrescriptionType","valueCoding":{"system":"https://fhir.nhs.uk/CodeSystem/prescription-type","code":"0101","display":"Primary Care Prescriber – Medical Prescriber"}},{"url":"https://fhir.nhs.uk/StructureDefinition/Extension-DM-ResponsiblePractitioner","valueReference":{"reference":"urn:uuid:6dc16793-61c2-44b8-8d0f-f872101c016e"}}],"identifier":[{"system":"https://fhir.nhs.uk/Id/prescription-order-item-number","value":"1e34ee53-397a-2e70-e97c-67b1bd95014d"}],"status":"active","intent":"order","category":[{"coding":[{"system":"http://terminology.hl7.org/CodeSystem/medicationrequest-category","code":"inpatient","display":"Inpatient"}],"text":"Inpatient"}],"medicationCodeableConcept":{"coding":[{"system":"http://snomed.info/sct","code":"35936511000001108","display":"Salbutamol 100micrograms/dose inhaler"}]},"subject":{"reference":"urn:uuid:c6750caa-3ca9-4f29-a282-6ee1aa5d7d4c"},"authoredOn":"2004-09-20T10:30:00.000+00:00","requester":{"reference":"urn:uuid:6dc16793-61c2-44b8-8d0f-f872101c016e","display":"Dr Smith"},"groupIdentifier":{"extension":[{"url":"https://fhir.nhs.uk/StructureDefinition/Extension-DM-PrescriptionId","valueIdentifier":{"system":"https://fhir.nhs.uk/Id/prescription","value":"EDD2E9DD-DA0A-C266-A4E3-447C68239524"}}],"system":"https://fhir.nhs.uk/Id/prescription-order-number","value":"83C40E-A23856-00123C"},"courseOfTherapyType":{"coding":[{"system":"http://terminology.hl7.org/CodeSystem/medicationrequest-course-of-therapy","code":"acute","display":"Short course (acute) therapy"}]},"dosageInstruction":[{"text":"2 Puffs when required"}],"dispenseRequest":{"extension":[{"url":"https://fhir.nhs.uk/StructureDefinition/Extension-DM-PerformerSiteType","valueCoding":{"system":"https://fhir.nhs.uk/CodeSystem/dispensing-site-preference","code":"0004"}}],"quantity":{"value":200,"unit":"actuation(s)","system":"http://snomed.info/sct","code":"732981002"},"performer":{"identifier":{"system":"https://fhir.nhs.uk/Id/ods-organization-code","value":"Y12345"}}},"substitution":{"allowedBoolean":false}}},{"fullUrl":"urn:uuid:791c9a65-5c6a-308b-d700-32d247badb87","resource":{"resourceType":"MedicationRequest","id":"791c9a65-5c6a-308b-d700-32d247badb87","extension":[{"url":"https://fhir.nhs.uk/StructureDefinition/Extension-DM-PrescriptionType","valueCoding":{"system":"https://fhir.nhs.uk/CodeSystem/prescription-type","code":"0101","display":"Primary Care Prescriber – Medical Prescriber"}},{"url":"https://fhir.nhs.uk/StructureDefinition/Extension-DM-ResponsiblePractitioner","valueReference":{"reference":"urn:uuid:6dc16793-61c2-44b8-8d0f-f872101c016e"}}],"identifier":[{"system":"https://fhir.nhs.uk/Id/prescription-order-item-number","value":"791c9a65-5c6a-308b-d700-32d247badb87"}],"status":"active","intent":"order","category":[{"coding":[{"system":"http://terminology.hl7.org/CodeSystem/medicationrequest-category","code":"inpatient","display":"Inpatient"}],"text":"Inpatient"}],"medicationCodeableConcept":{"coding":[{"system":"http://snomed.info/sct","code":"810211000001105","display":"Seretide 125 Evohaler (GlaxoSmithKline UK Ltd)"}]},"subject":{"reference":"urn:uuid:c6750caa-3ca9-4f29-a282-6ee1aa5d7d4c"},"authoredOn":"2004-09-20T10:30:00.000+00:00","requester":{"reference":"urn:uuid:6dc16793-61c2-44b8-8d0f-f872101c016e","display":"Dr Smith"},"groupIdentifier":{"extension":[{"url":"https://fhir.nhs.uk/StructureDefinition/Extension-DM-PrescriptionId","valueIdentifier":{"system":"https://fhir.nhs.uk/Id/prescription","value":"urn:uuid:EDD2E9DD-DA0A-C266-A4E3-447C68239524"}}],"system":"https://fhir.nhs.uk/Id/prescription-order-number","value":"83C40E-A23856-00123C"},"courseOfTherapyType":{"coding":[{"system":"http://terminology.hl7.org/CodeSystem/medicationrequest-course-of-therapy","code":"acute","display":"Short course (acute) therapy"}]},"dosageInstruction":[{"text":"2 Puffs twice daily"}],"dispenseRequest":{"extension":[{"url":"https://fhir.nhs.uk/StructureDefinition/Extension-DM-PerformerSiteType","valueCoding":{"system":"https://fhir.nhs.uk/CodeSystem/dispensing-site-preference","code":"0004"}}],"quantity":{"value":240,"unit":"actuation(s)","system":"http://snomed.info/sct","code":"732981002"},"performer":{"identifier":{"system":"https://fhir.nhs.uk/Id/ods-organization-code","value":"Y12345"}}},"substitution":{"allowedBoolean":false}}},{"fullUrl":"urn:uuid:c6750caa-3ca9-4f29-a282-6ee1aa5d7d4c","resource":{"resourceType":"Patient","id":"c6750caa-3ca9-4f29-a282-6ee1aa5d7d4c","identifier":[{"system":"https://fhir.nhs.uk/Id/nhs-number","value":"9900002717"}],"name":[{"use":"official","family":"Smith","given":["Frank","Simon"],"prefix":["Mr"]}],"gender":"male","birthDate":"1972-12-07","address":[{"use":"home","type":"both","line":["10, The High Street,"],"city":"Simple Town","postalCode":"AA1 1AA"}],"generalPractitioner":[{"identifier":{"system":"https://fhir.nhs.uk/Id/ods-organization-code","value":"Y12345","period":{"start":"2020-01-01T00:00:00+00:00","end":"2021-12-31T00:00:00+00:00"}},"display":"Dr Nice"}]}},{"fullUrl":"urn:uuid:6dc16793-61c2-44b8-8d0f-f872101c016e","resource":{"resourceType":"PractitionerRole","id":"6dc16793-61c2-44b8-8d0f-f872101c016e","identifier":[{"system":"https://fhir.nhs.uk/Id/sds-role-profile-id","value":"125686540025"}],"practitioner":{"identifier":{"system":"https://fhir.nhs.uk/Id/sds-user-id","value":"896547302565"},"display":"Dr Smith"},"organization":{"identifier":{"use":"official","system":"https://fhir.nhs.uk/Id/ods-organization-code","value":"M85011"},"display":"Mirfleld Surgery"},"code":[{"coding":[{"system":"https://fhir.hl7.org.uk/CodeSystem/UKCore-SDSJobRoleName","code":"R8000"}]}],"location":[{"reference":"urn:uuid:631330c5-2d4f-4683-a14a-c8e0c3c2d760"}],"telecom":[{"system":"phone","value":"01234567890","use":"work"}]}},{"fullUrl":"urn:uuid:0f314b9f-5233-42e6-aed3-c436bb9ac8ab","resource":{"resourceType":"PractitionerRole","id":"0f314b9f-5233-42e6-aed3-c436bb9ac8ab","identifier":[{"system":"https://fhir.nhs.uk/Id/sds-role-profile-id","value":"787946852679"}],"practitioner":{"identifier":{"system":"https://fhir.nhs.uk/Id/sds-user-id","value":"777964352001"},"display":"Dr Nice"},"organization":{"identifier":{"use":"official","system":"https://fhir.nhs.uk/Id/ods-organization-code","value":"M85011"},"display":"Mirfleld Surgery"},"code":[{"coding":[{"system":"https://fhir.hl7.org.uk/CodeSystem/UKCore-SDSJobRoleName","code":"R8000"}]}],"location":[{"reference":"urn:uuid:631330c5-2d4f-4683-a14a-c8e0c3c2d760"}],"telecom":[{"system":"phone","value":"01234567890","use":"work"}]}},{"fullUrl":"urn:uuid:631330c5-2d4f-4683-a14a-c8e0c3c2d760","resource":{"resourceType":"Location","identifier":[{"use":"official","system":"https://fhir.nhs.uk/Id/ods-organization-code","value":"M85011"}],"address":{"line":["4 WILLARD RD","SOUTH YARDLEY"],"city":"BIRMINGHAM","district":"WEST MIDLANDS","postalCode":"B25 8AA","country":"ENGLAND"}}}]}